aX,aY,aZ,gX,gY,gZ
-0.314,-1.734,0.061,9.583,134.338,42.969
-0.263,-1.638,0.080,0.916,130.859,57.922
-0.206,-1.554,0.099,-9.888,126.648,65.613
-0.162,-1.500,0.092,-21.851,122.375,67.383
-0.136,-1.456,0.064,-33.875,118.408,66.528
-0.093,-1.420,0.036,-44.495,115.601,64.819
-0.060,-1.370,-0.004,-53.040,113.647,63.171
0.018,-1.319,-0.041,-58.655,110.962,62.378
0.106,-1.270,-0.061,-63.232,106.995,61.462
0.180,-1.229,-0.070,-67.749,100.586,60.181
0.242,-1.184,-0.076,-70.068,94.177,60.486
0.301,-1.151,-0.095,-71.777,87.524,63.416
0.346,-1.101,-0.134,-75.012,80.566,67.566
0.379,-1.027,-0.173,-79.041,72.754,70.923
0.413,-0.938,-0.208,-82.458,63.965,72.998
0.414,-0.847,-0.248,-85.449,55.237,74.341
0.419,-0.743,-0.296,-86.975,46.265,74.158
0.431,-0.641,-0.327,-86.121,36.499,71.350
0.434,-0.567,-0.327,-83.862,25.330,66.467
0.410,-0.515,-0.314,-81.970,13.306,61.096
0.375,-0.471,-0.278,-79.163,0.732,57.556
0.337,-0.444,-0.225,-74.219,-11.780,56.580
0.290,-0.414,-0.167,-68.481,-23.743,57.983
0.229,-0.374,-0.112,-62.927,-33.752,61.035
0.170,-0.331,-0.061,-57.983,-42.053,63.232
0.113,-0.293,-0.022,-54.688,-49.011,63.232
0.057,-0.262,0.006,-53.040,-56.213,60.608
0.019,-0.235,0.040,-52.307,-63.904,55.664
-0.031,-0.213,0.068,-52.368,-71.106,49.805
-0.082,-0.188,0.079,-52.246,-77.087,45.288
-0.130,-0.157,0.094,-49.377,-81.421,42.786
-0.177,-0.132,0.102,-44.434,-84.961,41.626
-0.233,-0.125,0.108,-37.781,-90.332,41.382
-0.297,-0.133,0.128,-28.564,-98.511,41.321
-0.366,-0.158,0.177,-16.846,-105.408,42.725
-0.447,-0.187,0.231,-5.066,-108.765,46.631
-0.500,-0.213,0.272,4.578,-108.643,50.720
-0.528,-0.233,0.304,8.972,-107.605,50.537
-0.581,-0.236,0.318,8.362,-107.849,44.800
-0.609,-0.199,0.322,5.554,-108.459,37.720
-0.642,-0.188,0.321,3.235,-107.788,30.273
-0.694,-0.177,0.293,0.549,-104.492,22.522
-0.734,-0.189,0.259,1.221,-102.478,17.456
-0.784,-0.221,0.243,7.202,-103.699,12.634
-0.818,-0.285,0.261,17.639,-106.140,10.010
-0.845,-0.352,0.296,28.625,-108.704,10.559
-0.902,-0.415,0.341,38.513,-109.680,13.733
-0.969,-0.463,0.376,46.631,-107.483,19.592
-1.043,-0.495,0.423,52.856,-102.905,25.818
-1.084,-0.487,0.494,59.875,-98.389,27.039
-1.171,-0.552,0.383,80.017,-97.473,11.841
-1.161,-0.536,0.526,80.505,-87.769,0.916
-1.179,-0.557,0.508,79.224,-78.125,-7.812
-1.125,-0.573,0.519,69.153,-63.354,-16.235
-1.076,-0.585,0.497,58.899,-52.307,-21.729
-1.048,-0.592,0.492,49.866,-46.753,-28.259
-1.049,-0.608,0.486,46.021,-44.678,-31.921
-1.080,-0.652,0.476,48.035,-43.579,-30.029
-1.162,-0.706,0.505,56.580,-42.603,-22.888
-1.252,-0.775,0.568,72.327,-37.354,-11.780
-1.307,-0.839,0.623,88.257,-27.893,0.000
-1.363,-0.912,0.666,99.060,-19.653,8.301
-1.411,-0.976,0.718,107.483,-11.475,11.230
-1.436,-1.037,0.758,111.572,-0.793,11.169
-1.455,-1.109,0.805,110.291,13.306,10.315
-1.421,-1.170,0.836,104.004,30.945,7.202
-1.377,-1.191,0.843,90.759,48.096,0.549
-1.332,-1.184,0.812,76.294,64.148,-8.484
-1.227,-1.159,0.774,62.378,78.674,-17.212
-1.187,-1.136,0.703,54.321,92.346,-25.208
-1.119,-1.101,0.639,47.424,102.905,-28.198
-1.066,-1.082,0.559,45.959,110.718,-27.466
-1.031,-1.068,0.495,48.157,116.394,-25.879
-0.984,-1.061,0.446,52.979,119.446,-22.217
-0.936,-1.055,0.411,58.044,121.338,-19.226
-0.892,-1.062,0.387,61.584,122.864,-17.944
-0.855,-1.091,0.391,62.988,123.230,-19.409
-0.818,-1.139,0.393,64.148,125.122,-22.644
-0.751,-1.199,0.385,63.843,128.784,-24.536
-0.691,-1.251,0.347,59.570,132.812,-25.269
-0.654,-1.313,0.291,53.833,134.827,-26.794
-0.622,-1.391,0.221,46.875,135.620,-27.710
-0.564,-1.475,0.158,39.490,136.292,-27.344
-0.491,-1.549,0.092,30.396,137.390,-25.574
-0.400,-1.613,0.023,20.813,138.367,-23.315
-0.306,-1.676,-0.041,11.353,138.184,-22.034
-0.222,-1.739,-0.104,3.418,136.963,-20.081
-0.135,-1.785,-0.156,-3.845,134.766,-15.442
-0.048,-1.812,-0.223,-12.146,133.118,-8.789
0.022,-1.802,-0.287,-22.217,129.150,-0.366
0.087,-1.771,-0.331,-30.273,121.277,10.498
0.143,-1.700,-0.341,-35.828,111.145,23.193
0.186,-1.605,-0.347,-40.771,101.074,37.048
0.230,-1.496,-0.351,-46.448,91.980,50.293
0.242,-1.397,-0.339,-53.101,82.092,59.204
0.232,-1.315,-0.306,-59.204,71.167,64.758
0.213,-1.243,-0.282,-64.209,61.462,67.993
0.201,-1.167,-0.240,-69.031,53.162,69.824
0.209,-1.098,-0.205,-73.792,46.326,70.313
0.212,-1.030,-0.168,-79.773,39.734,69.519
0.199,-0.972,-0.135,-85.510,32.776,68.420
0.191,-0.910,-0.100,-88.928,26.245,68.481
0.199,-0.855,-0.063,-90.698,20.813,68.481
0.173,-0.797,-0.045,-92.407,14.404,68.420
0.137,-0.727,-0.019,-90.210,5.554,68.726
0.123,-0.666,0.025,-83.008,-1.831,68.787
0.118,-0.632,0.071,-74.463,-7.324,68.665
0.105,-0.613,0.106,-68.542,-13.367,68.176
0.093,-0.576,0.148,-66.101,-19.714,67.444
0.057,-0.551,0.182,-65.369,-23.804,64.880
0.051,-0.524,0.213,-66.833,-25.513,60.425
0.062,-0.509,0.238,-69.885,-27.954,53.711
0.059,-0.489,0.251,-74.158,-31.616,45.044
0.056,-0.480,0.269,-76.416,-35.950,37.048
0.071,-0.474,0.286,-76.050,-40.039,31.311
0.068,-0.462,0.296,-74.951,-43.335,28.442
0.058,-0.437,0.285,-73.242,-46.570,28.259
0.031,-0.406,0.271,-69.763,-50.964,29.053
0.003,-0.383,0.273,-65.186,-56.519,28.809

-1.045,-0.576,0.477,42.358,-39.978,-0.061
-1.069,-0.587,0.495,46.082,-35.339,0.122
-1.115,-0.602,0.511,49.622,-31.250,1.160
-1.164,-0.623,0.523,53.406,-26.794,2.197
-1.136,-0.592,0.550,57.251,-19.226,2.136
-1.140,-0.565,0.569,58.228,-9.399,-1.831
-1.131,-0.544,0.562,56.335,-1.465,-5.859
-1.129,-0.533,0.551,57.190,5.066,-11.047
-1.110,-0.530,0.538,61.035,11.536,-16.174
-1.122,-0.551,0.539,66.101,16.724,-19.531
-1.159,-0.593,0.542,71.899,20.020,-20.081
-1.205,-0.626,0.558,80.627,22.339,-17.273
-1.239,-0.663,0.576,90.576,27.527,-13.123
-1.262,-0.702,0.591,97.839,35.339,-9.827
-1.296,-0.738,0.602,101.074,43.213,-9.155
-1.301,-0.770,0.599,100.769,52.490,-11.414
-1.302,-0.800,0.575,96.680,63.416,-15.930
-1.300,-0.833,0.546,91.919,73.425,-22.522
-1.253,-0.882,0.522,87.463,83.618,-30.579
-1.247,-0.946,0.498,83.557,92.468,-39.612
-1.208,-1.021,0.450,79.163,98.389,-47.119
-1.207,-1.078,0.416,77.759,105.713,-53.101
-1.138,-1.115,0.381,76.843,112.671,-51.086
-1.086,-1.169,0.343,78.735,118.896,-47.974
-1.039,-1.214,0.320,81.299,121.338,-44.189
-1.022,-1.251,0.307,85.815,122.192,-38.269
-0.989,-1.284,0.293,92.468,124.939,-29.114
-0.939,-1.312,0.270,97.595,127.869,-18.616
-0.902,-1.324,0.249,99.854,129.272,-9.766
-0.880,-1.322,0.243,99.792,129.272,-2.747
-0.842,-1.322,0.244,97.900,130.005,2.747
-0.808,-1.330,0.266,93.628,131.042,6.348
-0.779,-1.340,0.280,86.548,131.714,7.019
-0.751,-1.354,0.278,75.806,134.521,4.456
-0.736,-1.369,0.250,62.744,138.733,-1.160
-0.709,-1.409,0.181,50.171,144.226,-7.812
-0.666,-1.460,0.084,36.011,150.269,-13.794
-0.568,-1.519,0.005,25.269,155.457,-19.897
-0.453,-1.567,-0.062,16.907,155.579,-23.926
-0.364,-1.592,-0.127,10.986,150.391,-21.973
-0.290,-1.597,-0.164,9.766,143.066,-10.681
-0.210,-1.583,-0.192,12.146,135.132,6.897
-0.186,-1.564,-0.183,13.306,126.892,26.550
-0.151,-1.552,-0.178,12.146,118.958,43.457
-0.141,-1.541,-0.163,6.653,111.084,54.382
-0.142,-1.518,-0.159,-1.404,103.821,60.120
-0.151,-1.487,-0.158,-10.681,99.060,63.354
-0.123,-1.433,-0.153,-19.714,98.206,64.453
-0.079,-1.377,-0.153,-29.053,98.816,62.012
-0.033,-1.320,-0.163,-39.246,98.816,57.251
0.025,-1.272,-0.181,-48.828,98.511,51.270
0.099,-1.243,-0.208,-56.824,97.290,45.654
0.159,-1.234,-0.237,-63.477,92.651,41.321
0.210,-1.231,-0.261,-68.237,84.839,41.138
0.244,-1.205,-0.270,-70.190,76.294,46.082
0.276,-1.159,-0.273,-69.458,68.909,55.176
0.291,-1.094,-0.285,-68.787,61.768,64.331
0.302,-1.034,-0.293,-70.557,53.772,70.313
0.294,-0.975,-0.281,-75.562,45.654,71.289
0.291,-0.928,-0.267,-81.726,37.964,68.665
0.297,-0.891,-0.239,-88.623,31.311,65.369
0.318,-0.868,-0.204,-94.482,24.841,62.378
0.332,-0.856,-0.164,-98.755,17.456,59.387
0.328,-0.841,-0.123,-102.356,9.827,58.594
0.332,-0.817,-0.092,-106.323,3.235,60.547
0.329,-0.776,-0.078,-110.657,-2.869,64.026
0.308,-0.722,-0.057,-114.502,-9.460,67.322
0.267,-0.655,-0.036,-117.249,-15.686,70.068
0.209,-0.580,-0.001,-116.150,-21.301,70.801
0.176,-0.516,0.032,-112.854,-25.391,69.031
0.158,-0.451,0.067,-108.521,-28.992,64.392
0.152,-0.407,0.087,-104.065,-32.837,58.044
0.144,-0.382,0.096,-101.074,-37.048,53.894
0.139,-0.360,0.097,-97.473,-41.443,52.734
0.121,-0.333,0.104,-93.018,-46.021,54.504
0.103,-0.301,0.107,-88.196,-50.232,58.411
0.082,-0.262,0.101,-85.144,-54.077,63.232
0.057,-0.223,0.095,-82.458,-59.143,66.833
0.030,-0.181,0.088,-79.163,-65.186,68.237
-0.002,-0.139,0.088,-76.172,-71.045,67.627
-0.078,-0.108,0.093,-71.838,-75.806,65.247
-0.104,-0.029,0.140,-63.477,-79.285,63.232
-0.128,0.010,0.180,-55.908,-80.566,59.631
-0.178,0.042,0.184,-50.354,-83.130,55.298
-0.222,0.060,0.189,-43.335,-87.524,50.720
-0.268,0.064,0.202,-34.119,-91.858,46.021
-0.312,0.039,0.220,-22.217,-96.130,42.603
-0.353,0.006,0.266,-10.315,-99.854,41.565
-0.385,-0.025,0.318,0.610,-102.600,42.725
-0.402,-0.040,0.356,7.568,-105.042,44.434
-0.437,-0.058,0.385,11.353,-108.582,44.189
-0.483,-0.059,0.416,12.878,-111.206,42.114
-0.519,-0.054,0.450,14.038,-110.657,39.368
-0.556,-0.049,0.465,16.235,-106.812,36.255
-0.581,-0.053,0.458,17.578,-103.333,33.997
-0.633,-0.080,0.451,19.104,-101.685,32.104
-0.688,-0.091,0.426,23.437,-101.746,32.349
-0.732,-0.129,0.456,29.297,-99.731,36.438
-0.826,-0.117,0.458,36.682,-98.022,43.030
-0.854,-0.071,0.483,49.866,-90.637,50.049
-0.872,-0.040,0.506,64.270,-75.867,55.908
-0.869,-0.005,0.534,76.599,-63.293,56.274
-0.824,-0.043,0.531,83.862,-54.993,49.194
-0.765,-0.139,0.504,78.735,-53.589,34.424
-0.756,-0.240,0.469,63.904,-62.683,14.648
-0.779,-0.333,0.437,48.523,-74.463,-1.221
-0.807,-0.402,0.398,38.452,-82.886,-5.432
-0.840,-0.485,0.362,35.950,-86.426,0.244
-0.864,-0.560,0.321,38.696,-87.769,12.451
-0.901,-0.616,0.290,43.396,-90.698,26.794
-0.944,-0.664,0.256,49.866,-92.834,40.649
-0.983,-0.710,0.242,55.847,-92.529,50.476
-1.021,-0.740,0.249,61.890,-89.050,52.917
-1.037,-0.768,0.268,65.369,-81.055,50.232
-1.036,-0.790,0.294,63.721,-73.425,41.992
-1.063,-0.817,0.330,57.739,-66.711,27.771
-0.988,-0.836,0.323,51.575,-59.448,12.756
-1.115,-0.883,0.398,53.345,-55.115,-6.348
-1.149,-0.921,0.492,62.561,-52.917,-18.616

-1.160,-1.033,0.582,92.041,-43.335,-16.541
-1.136,-1.070,0.629,104.187,-37.292,-7.263
-1.144,-1.099,0.656,110.840,-31.372,-3.357
-1.169,-1.122,0.661,109.009,-26.978,-5.554
-1.209,-1.166,0.644,98.206,-22.095,-14.648
-1.253,-1.219,0.647,83.069,-15.625,-29.053
-1.289,-1.275,0.674,70.618,-8.179,-42.053
-1.290,-1.318,0.689,62.134,-0.488,-48.950
-1.307,-1.356,0.698,58.472,5.859,-51.025
-1.315,-1.370,0.718,59.021,11.353,-46.143
-1.312,-1.349,0.733,62.927,19.287,-35.828
-1.302,-1.305,0.738,66.345,30.090,-23.560
-1.290,-1.246,0.738,66.467,41.992,-13.428
-1.258,-1.175,0.726,63.538,54.626,-7.324
-1.195,-1.089,0.704,57.617,68.237,-6.653
-1.154,-1.033,0.666,49.988,81.177,-10.803
-1.104,-0.980,0.633,42.786,92.041,-16.846
-1.039,-0.930,0.590,38.208,102.722,-22.644
-0.986,-0.891,0.555,35.339,110.840,-27.893
-0.959,-0.862,0.538,36.377,115.173,-32.898
-0.900,-0.849,0.547,42.542,118.042,-36.316
-0.900,-0.873,0.564,52.368,121.277,-38.452
-0.845,-0.944,0.548,61.340,123.596,-36.804
-0.875,-1.009,0.557,71.228,126.831,-38.025
-0.864,-1.072,0.569,73.730,130.127,-34.851
-0.858,-1.125,0.550,74.829,138.123,-31.006
-0.838,-1.162,0.525,72.083,147.400,-29.480
-0.804,-1.208,0.504,63.538,154.480,-31.494
-0.782,-1.263,0.477,53.955,158.997,-36.621
-0.742,-1.311,0.435,46.204,162.903,-41.382
-0.699,-1.399,0.355,40.833,166.443,-44.067
-0.656,-1.496,0.260,35.522,168.457,-44.800
-0.598,-1.577,0.191,32.288,168.091,-44.373
-0.550,-1.662,0.131,32.227,167.542,-41.321
-0.505,-1.722,0.076,32.166,168.823,-33.264
-0.417,-1.758,0.026,30.334,170.715,-21.545
-0.360,-1.760,-0.008,25.879,168.274,-11.108
-0.308,-1.733,-0.026,23.560,161.926,-2.625
-0.244,-1.721,-0.077,19.897,152.649,4.639
-0.182,-1.699,-0.138,9.155,140.930,10.315
-0.119,-1.631,-0.227,-4.028,130.249,14.221
-0.084,-1.573,-0.329,-18.921,120.544,15.930
-0.052,-1.517,-0.403,-31.067,110.779,14.709
-0.017,-1.495,-0.428,-35.950,102.478,12.024
-0.033,-1.475,-0.372,-36.072,96.924,9.827
0.016,-1.477,-0.338,-33.630,96.802,15.198
0.054,-1.462,-0.322,-36.194,100.891,25.391
0.088,-1.435,-0.314,-40.955,101.318,32.837
0.094,-1.406,-0.287,-47.363,96.558,35.400
0.115,-1.384,-0.268,-54.810,90.271,36.316
0.121,-1.343,-0.267,-62.256,84.167,38.452
0.129,-1.284,-0.267,-66.650,78.003,43.274
0.149,-1.216,-0.262,-67.505,72.327,49.805
0.167,-1.146,-0.256,-67.932,66.223,56.091
0.168,-1.069,-0.243,-68.970,58.411,61.707
0.178,-1.003,-0.221,-70.129,50.293,65.186
0.193,-0.963,-0.185,-71.228,41.626,67.078
0.201,-0.938,-0.154,-74.158,33.020,69.092
0.219,-0.910,-0.117,-77.148,25.269,71.777
0.240,-0.880,-0.080,-78.674,17.944,75.195
0.263,-0.833,-0.052,-79.956,11.597,79.285
0.275,-0.778,-0.030,-82.031,5.859,82.642
0.277,-0.729,-0.016,-83.801,-0.061,83.984
0.272,-0.687,-0.001,-84.351,-6.165,82.825
0.258,-0.652,0.028,-83.374,-12.878,80.688
0.245,-0.607,0.056,-81.238,-18.188,78.796
0.224,-0.558,0.064,-78.003,-20.996,76.904
0.215,-0.511,0.069,-74.707,-22.400,75.134
0.206,-0.471,0.076,-72.083,-24.475,72.815
0.205,-0.433,0.080,-70.435,-27.100,70.251
0.211,-0.395,0.068,-70.801,-30.396,67.993
0.212,-0.348,0.042,-72.021,-34.302,65.796
0.223,-0.297,0.017,-73.120,-39.001,64.331
0.228,-0.244,-0.005,-73.730,-43.823,63.110
0.224,-0.199,-0.031,-73.059,-49.255,61.279
0.198,-0.154,-0.048,-72.144,-55.176,58.960
0.170,-0.117,-0.050,-69.519,-61.523,56.702
0.145,-0.081,-0.024,-66.284,-68.237,54.382
0.114,-0.051,0.004,-63.599,-75.745,51.208
0.083,-0.022,0.047,-60.547,-84.595,47.668
0.023,0.005,0.118,-54.077,-93.079,46.204
-0.032,0.033,0.193,-45.227,-98.572,48.401
-0.064,0.033,0.238,-36.987,-102.173,51.147
-0.127,0.025,0.267,-30.151,-107.361,50.354
-0.203,0.020,0.289,-23.865,-112.793,48.035
-0.269,-0.001,0.320,-17.273,-117.065,45.288
-0.322,-0.043,0.347,-11.475,-119.690,42.786
-0.393,-0.096,0.370,-5.493,-120.911,40.771
-0.434,-0.147,0.394,-0.793,-119.507,40.466
-0.474,-0.183,0.420,1.282,-117.554,40.710
-0.565,-0.200,0.457,4.333,-110.046,43.030
-0.597,-0.198,0.498,8.667,-92.529,50.720
-0.589,-0.183,0.510,13.428,-74.341,58.777
-0.609,-0.191,0.523,18.311,-58.960,62.317
-0.622,-0.207,0.548,24.780,-51.697,62.256
-0.632,-0.232,0.563,32.898,-54.871,59.570
-0.712,-0.296,0.615,42.480,-63.049,53.711
-0.792,-0.345,0.692,55.176,-67.505,50.232
-0.812,-0.394,0.716,63.538,-60.730,52.429
-0.804,-0.417,0.697,63.843,-52.673,53.833
-0.794,-0.429,0.703,57.312,-49.744,49.133
-0.801,-0.436,0.690,45.959,-48.645,40.771
-0.766,-0.393,0.651,30.273,-47.913,34.119
-0.713,-0.355,0.577,13.428,-48.096,25.635
-0.652,-0.308,0.501,-2.502,-49.622,14.160
-0.620,-0.288,0.416,-15.625,-52.979,2.136
-0.577,-0.268,0.339,-23.743,-56.030,-6.531
-0.564,-0.282,0.269,-25.330,-59.509,-11.719
-0.569,-0.310,0.223,-19.348,-65.918,-12.024
-0.615,-0.358,0.181,-7.446,-74.341,-7.629
-0.667,-0.398,0.205,11.108,-85.938,0.793
-0.760,-0.446,0.290,36.133,-96.802,11.780
-0.868,-0.469,0.400,63.416,-103.394,25.269
-0.941,-0.496,0.513,86.975,-103.455,36.804
-0.967,-0.505,0.598,99.121,-99.609,39.429
-0.999,-0.527,0.668,97.107,-95.276,28.015
-1.022,-0.576,0.720,85.999,-89.600,8.240
-0.922,-0.612,0.732,72.021,-80.750,-10.803
-1.049,-0.719,0.796,68.970,-69.092,-32.410

-1.070,-0.863,0.836,68.665,-40.710,-41.687
-1.065,-0.910,0.838,74.524,-27.954,-39.551
-1.046,-0.942,0.845,79.529,-20.874,-34.668
-1.047,-0.964,0.857,83.130,-14.954,-30.762
-1.060,-0.968,0.876,85.571,-10.986,-28.992
-1.108,-0.988,0.881,87.097,-9.460,-29.236
-1.170,-1.002,0.900,87.341,-6.714,-29.724
-1.220,-1.026,0.933,89.355,-2.197,-31.067
-1.262,-1.059,0.964,92.224,3.479,-32.654
-1.304,-1.093,0.996,94.299,10.437,-34.668
-1.348,-1.137,1.027,97.412,19.287,-38.147
-1.360,-1.178,1.038,97.900,32.532,-40.710
-1.348,-1.200,1.008,93.384,48.767,-41.748
-1.317,-1.207,0.956,84.900,65.063,-43.457
-1.292,-1.211,0.880,74.097,77.881,-46.326
-1.260,-1.204,0.799,64.453,88.257,-49.438
-1.208,-1.190,0.715,55.298,97.168,-52.002
-1.153,-1.180,0.652,48.828,103.516,-54.993
-1.090,-1.177,0.595,46.265,107.178,-57.068
-1.066,-1.224,0.526,48.035,109.070,-58.533
-1.014,-1.219,0.551,50.415,110.535,-58.838
-1.005,-1.290,0.491,59.937,116.821,-57.617
-0.950,-1.344,0.448,65.674,125.061,-58.960
-0.861,-1.394,0.405,61.279,129.517,-57.678
-0.810,-1.427,0.373,53.711,131.592,-57.678
-0.750,-1.431,0.346,44.861,131.531,-55.420
-0.694,-1.420,0.315,35.645,129.883,-49.316
-0.664,-1.381,0.320,29.236,127.014,-40.161
-0.650,-1.347,0.332,28.076,126.221,-28.259
-0.617,-1.326,0.343,30.823,130.066,-14.038
-0.597,-1.321,0.348,35.767,134.583,-2.441
-0.590,-1.348,0.375,43.457,139.221,5.371
-0.597,-1.397,0.405,52.734,150.513,14.832
-0.582,-1.462,0.414,61.096,168.274,27.466
-0.525,-1.524,0.377,65.247,187.195,39.795
-0.412,-1.608,0.321,59.509,198.914,45.288
-0.317,-1.666,0.256,43.945,197.327,39.185
-0.264,-1.722,0.186,21.545,185.425,27.222
-0.200,-1.763,0.105,-4.822,169.312,18.860
-0.144,-1.757,0.030,-27.039,154.663,16.052
-0.078,-1.719,-0.032,-42.603,142.517,19.287
-0.030,-1.662,-0.095,-52.002,130.310,26.062
0.013,-1.593,-0.142,-56.580,114.197,31.616
0.055,-1.488,-0.178,-60.120,94.055,32.593
0.057,-1.371,-0.193,-63.538,74.341,28.503
0.100,-1.269,-0.233,-65.308,57.373,22.522
0.148,-1.219,-0.272,-66.528,39.795,14.832
0.129,-1.221,-0.245,-67.810,22.339,6.714
0.097,-1.244,-0.214,-62.988,12.939,4.883
0.134,-1.274,-0.186,-58.960,14.465,14.160
0.160,-1.281,-0.162,-59.143,18.921,26.733
0.158,-1.268,-0.143,-61.401,20.630,37.354
0.145,-1.237,-0.120,-64.087,21.790,46.631
0.150,-1.183,-0.126,-68.604,23.804,54.932
0.174,-1.113,-0.148,-74.707,23.987,60.425
0.187,-1.039,-0.182,-80.933,20.752,63.232
0.205,-0.964,-0.208,-85.754,14.587,65.857
0.238,-0.904,-0.225,-87.585,6.042,69.458
0.224,-0.868,-0.193,-86.060,-4.272,74.463
0.124,-0.841,-0.115,-78.430,-11.475,80.261
0.106,-0.835,-0.065,-67.566,-7.507,89.905
0.116,-0.811,-0.032,-64.087,0.671,99.487
0.122,-0.785,-0.012,-65.491,5.066,100.708
0.116,-0.761,-0.001,-72.021,4.639,95.581
0.110,-0.720,0.008,-78.857,2.991,88.501
0.144,-0.668,0.010,-83.618,3.784,82.153
0.189,-0.612,0.011,-88.135,3.479,76.294
0.227,-0.565,0.008,-90.271,-0.305,69.824
0.249,-0.511,-0.003,-91.248,-5.554,64.880
0.256,-0.448,-0.004,-90.088,-11.414,62.073
0.249,-0.392,0.026,-85.632,-17.517,60.730
0.225,-0.343,0.048,-78.857,-23.621,61.279
0.191,-0.328,0.081,-72.327,-30.334,61.523
0.161,-0.319,0.109,-65.613,-38.574,60.669
0.118,-0.306,0.147,-59.692,-46.753,58.167
0.082,-0.298,0.182,-54.810,-51.208,55.176
0.051,-0.290,0.214,-53.406,-52.429,52.490
0.027,-0.282,0.223,-55.115,-54.565,49.683
-0.005,-0.254,0.248,-57.312,-57.129,46.875
-0.028,-0.227,0.254,-57.312,-57.983,45.166
-0.031,-0.197,0.243,-56.702,-58.594,44.617
-0.055,-0.168,0.223,-54.077,-60.852,43.579
-0.072,-0.147,0.225,-48.828,-62.744,43.518
-0.075,-0.126,0.232,-42.419,-64.941,45.837
-0.076,-0.110,0.266,-33.569,-69.824,49.805
-0.096,-0.098,0.297,-24.109,-77.148,53.528
-0.159,-0.087,0.335,-15.991,-84.229,58.167
-0.245,-0.065,0.391,-7.080,-86.731,63.293
-0.301,-0.043,0.439,1.038,-83.435,67.261
-0.329,-0.027,0.461,4.089,-76.843,67.871
-0.349,-0.034,0.482,3.418,-71.899,61.829
-0.339,-0.057,0.507,0.854,-70.923,49.927
-0.318,-0.069,0.509,-6.836,-73.120,37.659
-0.310,-0.095,0.494,-16.357,-75.562,28.442
-0.332,-0.108,0.468,-22.705,-79.407,24.048
-0.368,-0.092,0.440,-22.827,-82.275,25.513
-0.377,-0.054,0.404,-18.311,-82.275,33.630
-0.412,-0.023,0.364,-10.864,-81.238,43.030
-0.474,0.005,0.360,1.099,-83.862,49.072
-0.508,0.007,0.367,15.991,-85.815,54.871
-0.545,0.005,0.396,27.771,-88.501,59.143
-0.599,0.004,0.442,38.940,-93.811,58.716
-0.631,0.002,0.494,46.204,-96.680,55.786
-0.665,-0.005,0.520,48.401,-97.656,50.842
-0.692,-0.028,0.558,47.058,-98.145,42.053
-0.713,-0.052,0.623,44.373,-98.572,30.090
-0.757,-0.083,0.674,41.321,-97.107,17.517
-0.760,-0.127,0.699,35.095,-93.689,7.751
-0.791,-0.168,0.726,28.625,-92.834,-1.709
-0.813,-0.224,0.737,24.963,-92.773,-9.827
-0.780,-0.295,0.711,21.545,-94.788,-14.282
-0.817,-0.357,0.703,19.653,-100.281,-16.418
-0.861,-0.417,0.670,22.949,-103.455,-12.695
-0.831,-0.460,0.644,29.724,-102.173,-1.404
-0.829,-0.498,0.612,35.522,-101.440,9.277
-0.876,-0.534,0.668,37.842,-100.586,15.137
-1.033,-0.704,0.696,42.969,-96.313,18.311
-0.978,-0.538,0.602,30.762,-85.632,25.208
-0.754,-0.675,0.579,9.399,-84.229,13.855

-0.629,-0.622,0.349,-0.183,-80.688,-1.770
-0.889,-0.628,0.404,10.376,-89.600,-2.808
-0.853,-0.584,0.383,29.114,-84.961,8.423
-0.993,-0.600,0.497,64.209,-86.975,16.296
-1.028,-0.663,0.649,101.440,-81.421,18.738
-1.045,-0.785,0.704,122.620,-74.280,19.775
-1.034,-0.956,0.758,136.353,-68.237,13.184
-0.978,-1.094,0.762,133.484,-65.186,8.789
-1.005,-1.164,0.768,121.826,-61.951,7.263
-0.983,-1.160,0.760,108.887,-55.725,10.437
-0.980,-1.109,0.712,93.628,-46.204,13.550
-1.006,-1.056,0.630,76.477,-35.461,12.634
-1.054,-1.018,0.559,58.838,-24.902,5.859
-1.072,-1.004,0.501,45.166,-14.771,-6.531
-1.086,-1.023,0.477,37.598,-8.423,-22.095
-1.090,-1.068,0.499,36.133,-5.371,-36.072
-1.108,-1.143,0.561,42.786,-4.333,-44.861
-1.140,-1.217,0.652,55.725,-3.845,-46.448
-1.184,-1.263,0.757,69.946,-2.930,-42.236
-1.234,-1.290,0.855,81.177,0.854,-36.438
-1.290,-1.302,0.933,87.708,7.385,-31.372
-1.326,-1.288,0.984,88.806,17.151,-28.687
-1.335,-1.257,1.014,83.801,30.396,-30.090
-1.313,-1.221,1.006,72.388,45.105,-35.950
-1.279,-1.178,0.961,58.167,58.960,-44.861
-1.224,-1.123,0.908,46.021,71.045,-53.528
-1.152,-1.067,0.844,37.903,80.750,-59.143
-1.093,-1.006,0.765,34.241,86.487,-61.462
-1.036,-0.940,0.689,35.706,86.670,-60.486
-1.053,-0.912,0.670,40.894,81.909,-57.678
-1.172,-0.897,0.707,52.429,79.346,-54.077
-1.190,-0.895,0.720,65.430,92.896,-44.373
-1.145,-0.891,0.688,67.932,117.249,-34.424
-1.116,-0.927,0.627,62.073,135.986,-36.499
-1.005,-0.959,0.606,48.096,142.395,-47.180
-0.950,-1.016,0.582,38.208,145.203,-61.646
-0.879,-1.055,0.551,26.245,147.278,-69.519
-0.794,-1.087,0.510,20.813,147.766,-68.176
-0.708,-1.126,0.482,24.170,145.508,-62.683
-0.674,-1.192,0.451,32.776,140.198,-56.091
-0.656,-1.268,0.425,42.480,132.690,-47.729
-0.656,-1.350,0.421,50.659,126.709,-38.879
-0.669,-1.404,0.424,55.481,125.732,-29.053
-0.644,-1.458,0.416,55.298,132.385,-19.592
-0.549,-1.541,0.368,49.683,141.785,-13.123
-0.454,-1.623,0.314,36.499,142.395,-13.245
-0.399,-1.677,0.269,19.958,134.888,-16.785
-0.329,-1.700,0.198,5.310,128.418,-14.343
-0.272,-1.684,0.120,-6.836,125.122,-3.540
-0.203,-1.650,0.042,-15.198,122.681,9.827
-0.149,-1.594,-0.005,-21.545,117.126,20.569
-0.110,-1.552,-0.043,-25.208,109.375,27.344
-0.091,-1.512,-0.053,-26.611,103.699,32.654
-0.067,-1.478,-0.049,-25.391,104.065,36.743
0.000,-1.448,-0.079,-25.391,108.826,41.809
0.057,-1.407,-0.125,-28.931,110.291,45.654
0.105,-1.353,-0.150,-33.203,108.398,47.607
0.158,-1.298,-0.182,-39.001,105.103,48.889
0.179,-1.242,-0.212,-45.288,98.816,50.293
0.203,-1.182,-0.216,-48.828,90.576,51.208
0.213,-1.125,-0.210,-49.744,82.336,52.002
0.222,-1.073,-0.202,-50.232,73.120,54.138
0.222,-1.020,-0.195,-52.429,63.354,57.190
0.217,-0.978,-0.186,-56.213,53.406,60.303
0.198,-0.932,-0.159,-59.875,44.128,62.744
0.206,-0.912,-0.145,-63.110,37.598,65.002
0.204,-0.893,-0.138,-69.092,31.860,66.956
0.166,-0.857,-0.121,-75.562,25.085,68.115
0.149,-0.819,-0.088,-80.322,20.386,68.542
0.148,-0.778,-0.074,-82.825,18.921,70.557
0.174,-0.731,-0.071,-86.670,17.944,74.219
0.173,-0.671,-0.074,-91.675,14.404,75.928
0.168,-0.591,-0.055,-94.421,8.545,74.646
0.153,-0.514,-0.022,-94.604,4.028,70.496
0.168,-0.454,0.006,-94.788,1.526,65.002
0.196,-0.401,-0.001,-96.680,-0.854,58.533
0.189,-0.356,0.003,-98.267,-5.920,51.514
0.187,-0.302,0.021,-95.520,-11.169,46.448
0.186,-0.268,0.034,-90.393,-15.076,45.105
0.181,-0.225,0.044,-84.045,-20.081,45.837
0.168,-0.193,0.046,-75.256,-26.001,46.570
0.142,-0.159,0.056,-66.223,-33.325,48.584
0.123,-0.140,0.072,-55.664,-41.321,52.002
0.099,-0.123,0.087,-45.471,-49.500,55.908
0.071,-0.114,0.109,-36.743,-57.678,59.570
0.023,-0.107,0.145,-31.006,-66.711,63.599
-0.038,-0.101,0.205,-26.306,-73.120,66.162
-0.097,-0.093,0.251,-23.560,-76.111,69.031
-0.148,-0.077,0.286,-23.010,-78.979,71.167
-0.223,-0.047,0.331,-20.569,-82.214,70.068
-0.272,-0.007,0.380,-13.916,-82.764,69.153
-0.288,0.038,0.412,-5.493,-79.163,70.801
-0.294,0.066,0.414,2.563,-75.989,71.594
-0.299,0.079,0.414,9.277,-78.125,69.946
-0.320,0.091,0.438,15.320,-84.045,65.430
-0.351,0.091,0.443,18.005,-88.745,59.387
-0.401,0.082,0.455,19.104,-92.346,53.040
-0.427,0.055,0.459,21.301,-92.651,46.448
-0.408,0.023,0.429,19.836,-92.773,41.382
-0.410,-0.006,0.384,14.099,-97.412,35.095
-0.428,-0.034,0.323,7.446,-104.126,28.748
-0.446,-0.054,0.273,0.854,-111.023,25.757
-0.522,-0.051,0.270,-0.916,-118.042,23.865
-0.583,-0.073,0.265,5.737,-119.568,24.902
-0.624,-0.106,0.279,12.817,-119.324,29.297
-0.705,-0.160,0.339,22.827,-120.789,31.616
-0.790,-0.197,0.436,35.217,-119.507,33.630
-0.854,-0.219,0.508,47.241,-113.159,38.208
-0.915,-0.238,0.582,56.274,-106.567,40.161
-0.977,-0.257,0.665,63.049,-99.609,35.156
-0.964,-0.266,0.712,62.134,-87.769,26.672
-0.907,-0.267,0.705,49.438,-73.181,13.000
-0.883,-0.278,0.662,29.663,-63.049,-7.568
-0.897,-0.303,0.588,9.949,-57.129,-29.419
-0.898,-0.331,0.531,-1.892,-52.673,-45.105
-0.846,-0.370,0.485,-3.113,-50.049,-53.955
-0.822,-0.466,0.445,1.465,-51.331,-57.556
-0.832,-0.530,0.437,8.667,-56.335,-54.077
-0.866,-0.568,0.449,19.958,-58.228,-42.664

-1.002,-0.722,0.519,59.387,-59.631,-12.878
-1.058,-0.757,0.551,61.951,-61.218,-11.658
-1.028,-0.769,0.570,63.171,-60.425,-9.949
-1.120,-0.819,0.620,67.688,-62.927,-16.663
-1.171,-0.815,0.743,73.792,-60.181,-21.790
-1.211,-0.830,0.760,72.021,-50.720,-19.226
-1.218,-0.834,0.775,71.350,-40.649,-18.188
-1.214,-0.850,0.769,66.528,-35.156,-18.127
-1.232,-0.855,0.778,63.293,-34.424,-21.362
-1.234,-0.868,0.789,66.528,-34.729,-22.583
-1.278,-0.917,0.819,72.998,-34.241,-19.409
-1.333,-0.959,0.885,81.665,-32.227,-13.794
-1.363,-0.990,0.943,91.003,-26.550,-6.775
-1.389,-1.009,0.985,95.947,-19.836,-1.038
-1.419,-1.015,1.007,95.886,-12.695,1.343
-1.439,-1.012,1.010,91.736,-3.174,0.305
-1.440,-0.992,0.989,82.764,9.033,-2.991
-1.405,-0.980,0.928,70.129,23.804,-9.277
-1.355,-0.954,0.858,54.199,38.757,-18.188
-1.301,-0.927,0.781,39.978,52.063,-27.100
-1.246,-0.906,0.691,31.128,62.744,-32.532
-1.216,-0.870,0.615,28.931,69.885,-33.691
-1.169,-0.844,0.566,34.180,75.195,-31.006
-1.136,-0.836,0.537,42.664,79.773,-26.489
-1.099,-0.844,0.527,51.086,83.374,-22.766
-1.069,-0.866,0.521,56.702,86.731,-21.912
-1.060,-0.919,0.523,59.143,89.783,-24.414
-1.087,-0.979,0.545,58.838,94.299,-29.419
-1.065,-1.056,0.555,56.519,105.713,-34.668
-1.032,-1.126,0.557,48.889,120.605,-40.466
-0.935,-1.139,0.579,38.025,130.920,-47.791
-0.920,-1.181,0.568,34.302,139.526,-58.533
-0.857,-1.214,0.572,27.710,145.203,-66.345
-0.790,-1.265,0.570,24.597,147.705,-67.505
-0.760,-1.317,0.560,26.550,146.362,-66.040
-0.737,-1.346,0.556,30.762,142.273,-58.899
-0.703,-1.358,0.547,34.119,137.390,-48.401
-0.678,-1.381,0.528,36.377,132.141,-38.208
-0.717,-1.411,0.521,37.842,125.366,-29.907
-0.733,-1.428,0.529,39.795,123.535,-22.278
-0.728,-1.439,0.520,39.856,130.676,-14.160
-0.682,-1.445,0.484,34.668,141.296,-6.653
-0.641,-1.441,0.438,23.621,148.376,-3.967
-0.584,-1.438,0.385,9.888,151.123,-6.714
-0.507,-1.429,0.322,-4.456,151.611,-11.047
-0.433,-1.423,0.227,-16.907,149.109,-13.550
-0.367,-1.420,0.141,-25.757,143.433,-12.146
-0.296,-1.411,0.064,-30.090,136.108,-6.714
-0.246,-1.380,0.002,-31.006,128.540,2.380
-0.207,-1.348,-0.030,-28.442,121.277,14.221
-0.172,-1.332,-0.042,-24.353,113.525,24.719
-0.152,-1.342,-0.029,-20.264,104.492,31.189
-0.137,-1.371,-0.011,-17.883,97.351,36.194
-0.122,-1.387,0.003,-19.409,92.590,41.626
-0.094,-1.379,0.008,-25.757,90.088,47.363
-0.080,-1.357,0.001,-36.438,87.646,51.270
-0.079,-1.314,0.003,-45.898,85.571,53.650
-0.019,-1.261,-0.013,-51.819,86.670,56.885
0.047,-1.210,-0.049,-57.068,86.609,60.730
0.105,-1.150,-0.066,-61.768,81.238,63.416
0.142,-1.092,-0.075,-65.857,73.303,66.772
0.167,-1.031,-0.076,-69.763,64.087,71.960
0.187,-0.965,-0.078,-74.219,54.077,77.820
0.196,-0.897,-0.079,-78.125,43.091,82.336
0.191,-0.843,-0.063,-81.238,31.006,85.205
0.173,-0.801,-0.011,-83.008,20.020,87.036
0.170,-0.748,0.048,-82.947,13.855,87.341
0.214,-0.705,0.087,-83.801,13.062,87.097
0.243,-0.665,0.099,-86.975,12.451,85.449
0.284,-0.617,0.086,-91.187,11.841,82.581
0.344,-0.571,0.057,-96.558,10.864,80.383
0.382,-0.530,0.029,-101.501,6.958,78.796
0.381,-0.477,0.010,-103.333,0.671,78.735
0.370,-0.411,-0.007,-99.976,-5.615,81.665
0.335,-0.346,-0.030,-93.018,-13.611,85.815
0.321,-0.277,-0.025,-83.557,-22.766,88.318
0.301,-0.248,-0.005,-73.730,-31.067,88.379
0.254,-0.219,0.002,-65.674,-39.063,87.097
0.210,-0.206,0.052,-60.303,-46.997,84.839
0.182,-0.191,0.100,-57.068,-50.598,80.078
0.174,-0.158,0.119,-59.021,-51.941,74.097
0.172,-0.134,0.114,-64.331,-53.894,65.979
0.155,-0.105,0.089,-70.618,-56.763,58.472
0.128,-0.073,0.070,-73.792,-61.218,54.504
0.103,-0.024,0.059,-72.021,-65.979,54.932
0.085,0.036,0.062,-65.063,-70.679,58.960
0.050,0.093,0.046,-53.528,-76.355,64.575
0.006,0.144,0.044,-38.635,-84.167,70.984
-0.057,0.165,0.065,-21.179,-93.323,76.599
-0.124,0.159,0.099,-3.906,-101.563,79.712
-0.197,0.128,0.147,10.437,-108.276,79.407
-0.286,0.075,0.180,21.545,-112.244,75.806
-0.351,0.026,0.224,27.832,-113.220,70.496
-0.406,-0.026,0.240,28.015,-111.267,62.256
-0.447,-0.068,0.238,24.170,-110.107,50.842
-0.489,-0.117,0.250,19.653,-110.840,37.598
-0.530,-0.150,0.299,18.494,-114.807,25.940
-0.580,-0.179,0.364,22.949,-121.277,19.043
-0.629,-0.233,0.414,29.419,-125.427,19.653
-0.667,-0.284,0.450,34.668,-128.113,26.550
-0.746,-0.307,0.494,40.039,-131.226,34.424
-0.806,-0.297,0.574,46.326,-131.409,42.664
-0.837,-0.266,0.632,49.316,-125.183,49.988
-0.846,-0.245,0.637,44.678,-116.394,51.819
-0.875,-0.230,0.622,33.081,-112.854,44.983
-0.937,-0.234,0.612,19.348,-113.647,31.067
-1.013,-0.246,0.628,8.789,-112.610,17.151
-1.031,-0.268,0.638,5.249,-106.873,8.240
-1.009,-0.283,0.644,5.920,-98.755,4.822
-0.997,-0.295,0.660,12.024,-94.177,4.578
-1.005,-0.310,0.685,22.156,-93.506,7.690
-1.017,-0.320,0.712,33.691,-91.919,14.893
-1.021,-0.330,0.744,44.861,-87.036,23.254
-1.006,-0.346,0.765,53.528,-80.261,28.870
-0.986,-0.384,0.776,56.396,-73.120,29.358
-0.969,-0.425,0.768,51.331,-67.627,25.513
-0.966,-0.451,0.734,42.603,-63.293,20.508
-0.965,-0.469,0.696,35.034,-58.594,17.273
-0.964,-0.469,0.666,33.020,-53.467,16.968

-0.931,-0.443,0.633,40.039,-43.945,20.691
-0.940,-0.443,0.623,48.157,-40.894,22.400
-0.883,-0.446,0.615,58.289,-40.344,24.475
-0.921,-0.474,0.621,69.885,-43.762,19.897
-0.953,-0.473,0.683,78.857,-46.753,14.465
-1.008,-0.512,0.674,83.008,-47.302,11.902
-1.070,-0.564,0.703,88.135,-44.617,8.484
-1.105,-0.625,0.746,92.529,-39.490,7.446
-1.142,-0.683,0.793,96.558,-32.654,6.775
-1.182,-0.737,0.831,98.694,-25.146,6.470
-1.206,-0.784,0.864,98.816,-16.602,4.700
-1.220,-0.853,0.874,95.032,-7.263,0.732
-1.211,-0.919,0.884,88.013,1.160,-3.845
-1.221,-0.962,0.880,79.651,8.972,-8.362
-1.223,-0.979,0.866,72.876,16.602,-10.315
-1.214,-0.976,0.850,68.848,24.902,-9.705
-1.204,-0.978,0.816,66.650,32.471,-8.362
-1.212,-0.981,0.787,66.101,38.269,-7.629
-1.221,-0.989,0.771,66.895,43.823,-6.592
-1.237,-0.996,0.758,69.946,50.659,-5.066
-1.237,-1.006,0.747,73.547,59.692,-3.357
-1.224,-1.031,0.736,75.317,69.946,-3.174
-1.217,-1.070,0.737,73.914,79.773,-5.859
-1.195,-1.123,0.717,71.594,91.003,-10.620
-1.143,-1.182,0.681,65.857,104.309,-16.907
-1.100,-1.267,0.641,57.190,115.112,-25.146
-1.079,-1.351,0.601,48.767,120.850,-35.217
-1.087,-1.413,0.563,43.518,123.413,-44.189
-0.973,-1.432,0.561,39.246,125.427,-47.302
-0.980,-1.496,0.519,41.809,126.221,-49.805
-0.974,-1.538,0.549,42.480,123.169,-50.598
-0.955,-1.580,0.608,44.800,123.230,-46.082
-0.949,-1.614,0.621,49.744,130.554,-41.138
-0.925,-1.658,0.617,50.720,140.625,-36.072
-0.863,-1.693,0.581,45.959,146.484,-32.471
-0.834,-1.734,0.534,37.964,146.667,-34.607
-0.779,-1.812,0.478,27.039,144.287,-36.621
-0.705,-1.892,0.433,17.456,142.517,-35.889
-0.608,-1.992,0.393,8.728,143.433,-28.381
-0.518,-2.052,0.378,-1.221,145.264,-13.489
-0.431,-2.083,0.309,-13.916,149.353,6.104
-0.307,-2.031,0.200,-31.738,153.992,26.733
-0.231,-1.915,0.104,-54.443,152.893,41.016
-0.183,-1.764,0.005,-74.707,145.691,45.471
-0.099,-1.604,-0.047,-92.468,135.132,43.335
0.006,-1.466,-0.087,-102.356,124.939,36.865
0.146,-1.348,-0.116,-106.689,114.441,29.785
0.274,-1.250,-0.139,-107.666,101.685,24.170
0.352,-1.184,-0.125,-106.018,85.999,22.339
0.341,-1.150,-0.059,-101.196,72.632,24.414
0.247,-1.118,0.046,-90.454,68.237,27.710
0.285,-1.098,0.087,-77.576,78.735,34.546
0.352,-1.064,0.086,-70.679,90.027,37.292
0.383,-1.023,0.082,-66.223,90.393,28.931
0.404,-0.987,0.060,-64.087,86.426,14.404
0.434,-0.954,0.043,-65.796,81.177,1.465
0.459,-0.928,0.007,-67.200,76.721,-5.310
0.475,-0.896,-0.036,-66.528,72.876,-6.042
0.504,-0.849,-0.066,-66.101,68.237,0.000
0.527,-0.782,-0.067,-66.589,60.242,10.498
0.533,-0.710,-0.056,-68.481,49.255,21.484
0.525,-0.641,-0.046,-72.449,36.621,30.518
0.505,-0.578,-0.047,-77.759,24.231,38.025
0.477,-0.527,-0.063,-81.299,13.611,44.128
0.449,-0.478,-0.066,-81.421,5.005,48.706
0.429,-0.438,-0.058,-78.552,-0.549,51.697
0.433,-0.395,-0.049,-74.097,-4.150,52.795
0.428,-0.361,-0.030,-70.190,-8.972,52.246
0.414,-0.327,-0.004,-67.627,-15.686,50.293
0.381,-0.304,0.024,-65.735,-23.621,46.875
0.313,-0.286,0.048,-61.829,-30.945,43.396
0.285,-0.271,0.061,-57.800,-34.790,43.640
0.263,-0.243,0.064,-55.359,-37.231,44.739
0.225,-0.223,0.071,-52.185,-41.016,43.396
0.196,-0.203,0.082,-50.842,-45.593,40.649
0.178,-0.183,0.089,-50.110,-49.805,38.025
0.173,-0.162,0.082,-49.988,-54.077,36.194
0.156,-0.130,0.061,-49.622,-59.509,36.011
0.139,-0.107,0.048,-46.814,-66.284,37.903
0.112,-0.085,0.067,-42.236,-72.449,42.175
0.046,-0.063,0.098,-35.156,-77.148,48.035
-0.007,-0.035,0.161,-28.076,-79.224,55.603
-0.063,-0.000,0.217,-22.339,-80.139,61.523
-0.105,0.032,0.253,-16.785,-81.238,62.927
-0.142,0.051,0.271,-13.123,-83.618,60.974
-0.230,0.076,0.287,-10.071,-86.670,57.556
-0.302,0.103,0.285,-3.052,-87.402,54.871
-0.343,0.118,0.290,6.531,-86.670,52.856
-0.365,0.105,0.297,16.785,-87.585,47.913
-0.391,0.060,0.324,25.818,-92.468,39.368
-0.443,0.003,0.359,32.959,-97.412,30.884
-0.485,-0.047,0.407,38.391,-99.670,25.391
-0.501,-0.086,0.430,39.978,-99.243,23.071
-0.523,-0.095,0.469,39.917,-99.548,20.630
-0.572,-0.119,0.503,42.664,-99.548,18.921
-0.647,-0.134,0.556,45.715,-100.708,19.897
-0.744,-0.148,0.596,51.392,-100.342,23.804
-0.809,-0.140,0.628,57.739,-95.642,30.640
-0.861,-0.137,0.676,63.049,-90.393,34.851
-0.914,-0.136,0.745,67.871,-86.121,31.982
-0.948,-0.142,0.804,69.275,-83.374,26.794
-0.977,-0.156,0.816,67.139,-80.261,19.470
-0.978,-0.176,0.833,64.514,-78.186,9.033
-0.975,-0.210,0.825,60.303,-75.684,-1.709
-0.958,-0.241,0.784,55.298,-71.716,-10.193
-0.933,-0.275,0.710,49.805,-68.176,-15.015
-0.913,-0.305,0.630,46.204,-66.101,-16.968
-0.844,-0.359,0.525,44.434,-64.758,-15.381
-0.789,-0.408,0.424,40.527,-67.444,-11.536
-0.794,-0.428,0.347,38.574,-73.730,-6.287
-0.786,-0.448,0.274,42.053,-77.148,4.211
-0.777,-0.460,0.228,48.706,-78.796,19.409
-0.824,-0.482,0.203,58.289,-79.407,32.959
-0.897,-0.490,0.179,67.139,-76.355,42.297
-0.949,-0.506,0.177,73.181,-71.289,46.204
-0.973,-0.543,0.176,72.754,-64.697,40.527
-1.003,-0.601,0.188,64.819,-60.120,24.841
-1.080,-0.694,0.218,53.711,-58.350,6.165
-1.074,-0.771,0.274,50.171,-57.678,-10.132

-1.094,-0.925,0.425,73.975,-55.481,-30.701
-1.111,-0.964,0.468,86.182,-48.767,-23.499
-1.117,-0.977,0.526,97.168,-41.443,-14.038
-1.127,-0.984,0.587,102.783,-37.964,-2.991
-1.162,-1.001,0.638,103.577,-35.278,2.991
-1.196,-1.024,0.680,100.464,-31.555,3.906
-1.251,-1.071,0.702,94.177,-26.489,1.038
-1.282,-1.131,0.715,86.182,-18.250,-2.136
-1.257,-1.172,0.733,78.125,-6.714,-5.615
-1.219,-1.203,0.748,69.397,3.906,-7.751
-1.209,-1.207,0.753,59.875,12.756,-7.080
-1.214,-1.194,0.749,52.124,20.569,-5.371
-1.234,-1.177,0.743,47.546,28.992,-4.211
-1.215,-1.159,0.751,46.814,37.842,-3.235
-1.187,-1.150,0.745,46.631,47.119,-4.456
-1.169,-1.153,0.740,46.204,54.077,-8.240
-1.156,-1.170,0.739,48.157,59.326,-11.536
-1.129,-1.195,0.732,53.467,66.040,-12.390
-1.104,-1.223,0.718,57.861,72.510,-11.414
-1.103,-1.241,0.702,59.692,77.271,-9.949
-1.105,-1.247,0.700,60.303,82.214,-8.789
-1.078,-1.232,0.715,58.350,89.661,-9.399
-1.062,-1.233,0.703,52.856,99.609,-13.245
-1.004,-1.234,0.695,43.518,109.070,-19.348
-1.034,-1.251,0.674,37.048,119.141,-30.579
-0.978,-1.258,0.657,24.048,130.493,-37.781
-0.924,-1.288,0.608,12.817,143.494,-43.823
-0.853,-1.331,0.556,3.113,152.222,-49.377
-0.791,-1.360,0.519,-5.554,154.907,-52.429
-0.755,-1.370,0.482,-10.437,155.029,-50.781
-0.702,-1.355,0.447,-12.695,156.128,-42.175
-0.648,-1.331,0.414,-12.817,157.288,-30.212
-0.610,-1.303,0.376,-10.132,156.189,-20.691
-0.590,-1.281,0.338,-7.568,153.992,-13.794
-0.570,-1.269,0.300,-3.723,150.757,-9.399
-0.538,-1.286,0.268,-0.671,145.935,-7.568
-0.491,-1.319,0.250,0.183,138.916,-7.019
-0.459,-1.357,0.236,-0.671,130.371,-6.592
-0.427,-1.383,0.241,-2.563,122.375,-3.174
-0.407,-1.396,0.260,-3.235,118.225,2.014
-0.365,-1.401,0.254,-4.211,120.728,9.521
-0.305,-1.400,0.231,-8.850,125.671,18.860
-0.248,-1.382,0.198,-17.334,131.104,27.283
-0.204,-1.359,0.147,-27.893,133.423,32.776
-0.154,-1.327,0.082,-34.668,134.460,37.048
-0.090,-1.287,0.035,-38.879,132.629,41.016
-0.031,-1.239,-0.010,-41.565,128.235,45.715
0.017,-1.185,-0.044,-44.067,122.009,51.208
0.070,-1.132,-0.077,-45.105,114.258,55.786
0.120,-1.082,-0.068,-47.668,105.469,57.495
0.133,-1.067,-0.088,-47.241,96.741,55.847
0.139,-1.065,-0.111,-47.424,89.050,53.772
0.143,-1.079,-0.112,-45.044,81.543,52.063
0.142,-1.100,-0.096,-41.748,74.890,50.781
0.160,-1.122,-0.073,-38.757,67.627,51.086
0.163,-1.141,-0.044,-35.217,61.523,52.856
0.173,-1.158,-0.015,-34.912,57.495,56.335
0.206,-1.156,0.013,-39.917,54.688,60.974
0.235,-1.135,0.033,-50.110,51.147,64.636
0.266,-1.090,0.047,-63.110,46.326,68.115
0.300,-1.031,0.056,-75.073,41.199,70.313
0.329,-0.958,0.052,-85.632,35.583,70.740
0.348,-0.867,0.038,-94.299,29.968,69.763
0.362,-0.774,0.020,-100.220,24.597,67.993
0.374,-0.679,-0.000,-104.309,19.897,65.979
0.384,-0.598,-0.032,-106.140,14.771,62.500
0.378,-0.528,-0.060,-105.652,7.935,57.739
0.366,-0.471,-0.058,-102.539,0.061,52.979
0.355,-0.401,-0.050,-95.520,-5.371,49.133
0.357,-0.364,-0.040,-88.867,-9.033,47.180
0.346,-0.331,-0.031,-84.106,-12.573,45.471
0.316,-0.296,-0.015,-78.918,-17.883,43.701
0.306,-0.264,-0.001,-75.439,-23.560,42.969
0.298,-0.240,-0.001,-72.815,-29.175,42.725
0.293,-0.220,0.003,-69.702,-37.231,42.480
0.284,-0.203,0.005,-66.223,-46.448,44.067
0.251,-0.178,0.019,-62.012,-55.176,48.828
0.198,-0.150,0.049,-54.443,-61.096,56.824
0.177,-0.099,0.085,-43.091,-64.880,68.604
0.175,-0.041,0.134,-29.663,-69.946,80.078
0.167,0.018,0.177,-16.541,-76.965,88.623
0.136,0.068,0.212,-4.517,-87.219,93.872
0.066,0.102,0.266,6.775,-99.182,95.154
-0.016,0.115,0.346,18.005,-108.215,92.834
-0.076,0.107,0.398,24.963,-111.023,88.562
-0.115,0.090,0.424,26.794,-110.413,80.872
-0.165,0.063,0.448,26.367,-109.558,69.458
-0.189,0.032,0.460,25.574,-107.178,57.861
-0.185,0.015,0.472,22.949,-104.004,49.377
-0.171,-0.024,0.423,19.104,-101.501,42.725
-0.152,-0.062,0.381,15.076,-104.126,37.170
-0.151,-0.106,0.329,12.390,-111.511,33.325
-0.172,-0.133,0.309,11.780,-120.361,34.424
-0.188,-0.131,0.303,17.273,-127.014,41.565
-0.179,-0.113,0.286,30.090,-131.592,56.274
-0.239,-0.110,0.290,51.392,-135.803,78.125
-0.361,-0.135,0.314,83.191,-135.925,106.750
-0.500,-0.161,0.354,117.554,-130.554,139.343
-0.615,-0.147,0.410,148.804,-124.146,164.185
-0.704,-0.140,0.444,171.753,-121.277,168.945
-0.841,-0.181,0.479,183.960,-123.718,152.222
-0.924,-0.270,0.531,186.829,-124.939,123.596
-0.987,-0.402,0.603,180.237,-121.643,89.294
-0.994,-0.550,0.647,162.781,-112.976,54.932
-0.956,-0.679,0.673,134.766,-102.844,24.170
-0.895,-0.785,0.658,99.609,-93.262,-3.052
-0.828,-0.847,0.604,60.120,-85.876,-24.902
-0.803,-0.868,0.539,26.550,-83.435,-39.978
-0.786,-0.851,0.464,2.625,-84.778,-45.715
-0.793,-0.829,0.379,-8.118,-88.318,-43.823
-0.870,-0.799,0.323,-8.301,-93.445,-37.476
-0.940,-0.783,0.320,1.160,-98.022,-28.503
-0.975,-0.785,0.334,18.188,-98.694,-20.203
-1.010,-0.816,0.371,39.429,-93.445,-14.648
-1.032,-0.846,0.423,61.096,-83.435,-10.376
-0.945,-0.866,0.524,81.970,-72.632,-5.493
-1.034,-0.891,0.580,101.379,-64.087,-3.479
-1.080,-0.972,0.551,120.422,-60.181,-8.972
-1.051,-0.984,0.648,127.625,-51.025,-9.399

-1.155,-1.075,0.656,126.160,-26.184,-2.808
-1.150,-1.115,0.678,123.718,-14.954,-2.258
-1.138,-1.162,0.710,120.056,-4.639,-5.310
-1.156,-1.205,0.722,114.136,7.385,-8.179
-1.140,-1.230,0.723,106.445,21.729,-10.132
-1.118,-1.245,0.711,97.473,34.790,-13.733
-1.080,-1.262,0.681,86.975,45.288,-19.043
-1.021,-1.264,0.636,75.378,52.185,-23.193
-0.982,-1.255,0.588,66.833,56.763,-24.780
-0.945,-1.234,0.539,63.965,61.829,-21.118
-0.897,-1.174,0.495,67.322,67.078,-12.634
-0.873,-1.125,0.458,73.303,73.364,-4.272
-0.839,-1.095,0.426,77.576,79.895,0.549
-0.838,-1.088,0.403,77.820,84.167,-0.305
-0.861,-1.121,0.397,74.219,87.891,-7.141
-0.892,-1.195,0.373,68.115,93.750,-17.517
-0.868,-1.282,0.349,61.768,100.952,-27.222
-0.821,-1.379,0.337,56.396,105.286,-36.133
-0.786,-1.476,0.325,50.659,107.483,-41.687
-0.747,-1.540,0.309,45.532,109.802,-41.260
-0.710,-1.564,0.295,39.063,110.535,-36.377
-0.685,-1.577,0.282,32.532,109.497,-30.457
-0.708,-1.563,0.305,25.940,108.826,-25.757
-0.706,-1.581,0.272,19.653,110.657,-20.142
-0.726,-1.576,0.248,13.184,115.662,-19.653
-0.676,-1.573,0.220,1.892,120.667,-16.846
-0.644,-1.584,0.168,-6.531,124.573,-15.808
-0.605,-1.594,0.126,-12.085,126.038,-15.686
-0.564,-1.601,0.100,-16.846,126.221,-12.939
-0.514,-1.586,0.094,-21.301,128.113,-5.798
-0.491,-1.591,0.057,-20.325,129.883,0.732
-0.436,-1.578,0.042,-20.752,131.470,7.935
-0.389,-1.570,0.017,-22.278,131.775,15.198
-0.359,-1.567,0.001,-24.719,130.676,19.653
-0.320,-1.568,-0.017,-30.701,129.028,23.193
-0.292,-1.557,-0.035,-37.415,127.014,25.818
-0.266,-1.546,-0.056,-42.969,125.366,27.161
-0.234,-1.527,-0.065,-47.424,124.329,27.527
-0.204,-1.518,-0.064,-53.345,122.620,26.306
-0.195,-1.515,-0.066,-61.096,120.361,22.644
-0.159,-1.514,-0.070,-68.848,117.859,18.616
-0.102,-1.507,-0.071,-74.829,114.868,15.381
-0.055,-1.492,-0.076,-79.834,111.389,15.015
0.012,-1.463,-0.091,-82.947,106.506,18.616
0.073,-1.436,-0.104,-84.290,99.792,26.245
0.090,-1.399,-0.114,-85.144,91.248,37.048
0.073,-1.345,-0.108,-82.764,83.008,47.913
0.095,-1.287,-0.090,-77.026,77.209,59.753
0.130,-1.214,-0.093,-67.627,74.768,69.519
0.184,-1.148,-0.092,-60.669,71.472,74.890
0.208,-1.084,-0.077,-57.434,64.392,75.378
0.225,-1.031,-0.055,-57.129,55.664,73.547
0.235,-0.998,-0.037,-56.702,49.744,71.228
0.266,-0.970,-0.029,-56.641,46.875,69.519
0.286,-0.958,-0.030,-56.763,43.030,67.139
0.291,-0.956,-0.039,-59.021,36.072,64.392
0.320,-0.956,-0.059,-59.631,27.649,63.599
0.355,-0.946,-0.065,-59.021,19.775,66.895
0.351,-0.918,-0.072,-58.777,13.489,74.524
0.411,-0.834,-0.058,-58.350,11.353,88.989
0.509,-0.719,-0.077,-61.157,13.489,107.483
0.577,-0.578,-0.117,-69.031,12.695,124.146
0.600,-0.432,-0.154,-78.186,6.653,133.057
0.597,-0.307,-0.176,-88.196,-1.343,134.949
0.586,-0.168,-0.222,-97.168,-9.521,132.202
0.557,-0.051,-0.249,-105.530,-18.677,123.108
0.529,0.044,-0.279,-110.291,-28.320,108.337
0.507,0.098,-0.278,-111.023,-37.354,89.111
0.473,0.114,-0.271,-106.323,-46.875,68.115
0.432,0.075,-0.245,-98.145,-57.495,48.096
0.410,0.009,-0.207,-87.280,-68.481,33.203
0.393,-0.062,-0.166,-75.256,-77.698,23.376
0.367,-0.129,-0.128,-63.782,-85.449,18.127
0.319,-0.165,-0.092,-53.528,-93.384,17.578
0.265,-0.196,-0.060,-43.823,-100.220,19.409
0.205,-0.206,-0.007,-35.522,-106.689,23.376
0.149,-0.210,0.035,-27.771,-113.159,29.053
0.076,-0.202,0.091,-21.118,-119.263,34.851
-0.015,-0.179,0.152,-14.709,-125.000,40.649
-0.099,-0.147,0.205,-8.484,-128.540,45.776
-0.158,-0.110,0.249,-1.770,-130.554,48.096
-0.213,-0.090,0.289,5.432,-132.690,47.302
-0.264,-0.073,0.335,13.916,-135.498,44.678
-0.302,-0.059,0.380,23.926,-137.512,42.542
-0.328,-0.047,0.419,34.241,-137.878,41.138
-0.366,-0.054,0.434,42.603,-137.573,40.527
-0.416,-0.040,0.471,49.988,-138.062,41.138
-0.478,-0.042,0.508,56.702,-134.705,41.687
-0.527,-0.029,0.534,58.716,-127.136,42.236
-0.541,0.019,0.558,57.983,-121.338,40.283
-0.564,0.026,0.558,55.176,-117.676,32.166
-0.588,0.062,0.561,47.852,-115.173,19.287
-0.606,0.070,0.538,40.771,-115.234,4.028
-0.611,0.062,0.514,34.912,-116.821,-11.292
-0.648,0.041,0.483,32.654,-118.713,-24.719
-0.698,0.001,0.439,35.828,-120.422,-33.508
-0.751,-0.058,0.421,44.128,-121.521,-37.659
-0.821,-0.150,0.419,57.922,-121.582,-38.330
-0.880,-0.261,0.426,74.158,-120.544,-34.729
-0.912,-0.390,0.438,90.027,-119.934,-27.954
-0.947,-0.499,0.458,102.539,-120.300,-20.935
-0.992,-0.578,0.481,110.962,-118.774,-14.282
-1.017,-0.628,0.480,114.136,-114.014,-7.019
-1.061,-0.667,0.460,112.793,-107.605,-2.502
-1.090,-0.706,0.447,107.239,-100.098,-4.517
-1.137,-0.758,0.432,95.886,-91.553,-13.855
-1.208,-0.826,0.399,80.383,-83.130,-25.940
-1.241,-0.897,0.389,67.322,-74.219,-37.109
-1.136,-0.964,0.430,61.157,-64.819,-46.570
-1.241,-1.026,0.478,65.186,-56.458,-56.030
-1.301,-1.108,0.485,79.346,-53.223,-67.688
-1.266,-1.138,0.584,85.144,-44.312,-63.354
-1.321,-1.185,0.612,95.642,-33.875,-54.810
-1.361,-1.226,0.624,101.074,-24.292,-43.213
-1.414,-1.272,0.657,108.276,-18.311,-33.264
-1.473,-1.345,0.697,117.065,-12.207,-28.564
-1.504,-1.419,0.757,123.596,-4.028,-25.208
-1.515,-1.485,0.774,124.451,7.568,-22.766
-1.493,-1.539,0.790,118.286,21.179,-20.020

-1.390,-1.559,0.761,89.233,46.387,-13.977
-1.331,-1.506,0.724,67.688,58.044,-10.925
-1.280,-1.420,0.670,44.861,69.519,-8.606
-1.224,-1.322,0.604,24.170,80.994,-8.301
-1.170,-1.239,0.527,7.935,91.064,-9.644
-1.139,-1.163,0.456,-3.784,98.145,-12.207
-1.118,-1.094,0.398,-9.094,103.149,-14.709
-1.071,-1.045,0.354,-6.714,108.826,-15.198
-1.018,-1.017,0.321,0.061,114.502,-13.672
-0.975,-1.008,0.297,9.277,117.004,-11.658
-0.930,-1.003,0.283,19.714,117.859,-8.179
-0.880,-1.005,0.282,28.748,118.958,-4.517
-0.850,-1.018,0.278,36.682,119.995,-2.319
-0.839,-1.040,0.288,44.312,121.216,-1.099
-0.833,-1.071,0.304,48.889,123.535,-0.549
-0.808,-1.115,0.311,49.194,127.441,-1.709
-0.779,-1.162,0.320,44.983,131.348,-5.371
-0.760,-1.195,0.322,36.743,135.010,-10.010
-0.743,-1.234,0.318,26.794,140.137,-14.404
-0.736,-1.281,0.323,16.602,145.020,-18.433
-0.708,-1.339,0.303,6.104,149.048,-24.292
-0.681,-1.362,0.276,-5.310,151.123,-33.813
-0.611,-1.370,0.230,-17.639,149.841,-39.795
-0.592,-1.390,0.198,-24.170,146.484,-43.518
-0.563,-1.390,0.170,-25.452,144.714,-42.297
-0.509,-1.406,0.150,-22.583,144.958,-36.438
-0.453,-1.414,0.126,-17.639,146.301,-27.405
-0.400,-1.419,0.108,-12.268,147.461,-15.869
-0.308,-1.408,0.090,-9.827,148.804,-3.784
-0.224,-1.393,0.050,-12.695,148.437,4.333
-0.141,-1.379,-0.017,-16.907,143.677,10.559
-0.059,-1.394,-0.073,-19.836,136.108,16.113
0.002,-1.411,-0.112,-21.790,127.380,23.376
0.064,-1.417,-0.148,-22.278,119.995,32.898
0.102,-1.411,-0.166,-22.705,112.793,42.725
0.128,-1.398,-0.186,-22.217,105.957,50.659
0.151,-1.383,-0.189,-23.743,100.647,54.565
0.166,-1.389,-0.209,-28.259,95.276,51.758
0.168,-1.404,-0.204,-38.818,88.318,43.762
0.164,-1.434,-0.197,-48.279,82.031,35.339
0.205,-1.462,-0.181,-54.565,78.552,31.860
0.241,-1.470,-0.184,-59.204,75.439,34.180
0.261,-1.448,-0.189,-64.026,69.641,41.077
0.256,-1.397,-0.170,-68.054,60.608,49.988
0.242,-1.334,-0.156,-69.580,52.490,60.486
0.217,-1.278,-0.147,-71.716,46.875,71.472
0.203,-1.218,-0.127,-75.867,41.077,81.299
0.203,-1.161,-0.089,-81.238,34.119,88.135
0.209,-1.096,-0.038,-88.318,27.283,92.529
0.207,-1.012,0.016,-95.093,21.301,96.680
0.222,-0.938,0.056,-98.633,16.296,100.464
0.244,-0.843,0.085,-99.121,12.451,104.248
0.285,-0.750,0.097,-97.473,9.094,107.239
0.328,-0.658,0.108,-95.276,4.822,108.704
0.357,-0.574,0.116,-92.590,0.732,107.666
0.383,-0.490,0.118,-90.210,-2.869,103.455
0.402,-0.421,0.103,-90.088,-8.118,96.436
0.416,-0.351,0.080,-89.966,-14.526,87.402
0.427,-0.283,0.057,-88.623,-21.667,77.820
0.433,-0.213,0.048,-87.585,-29.480,70.129
0.424,-0.139,0.040,-85.388,-36.804,65.491
0.402,-0.073,0.043,-82.703,-44.495,63.049
0.371,-0.010,0.050,-79.529,-51.758,60.303
0.349,0.037,0.057,-75.623,-58.228,56.580
0.314,0.070,0.071,-71.411,-65.308,52.002
0.269,0.098,0.097,-66.650,-72.998,47.852
0.229,0.114,0.116,-61.584,-79.712,44.983
0.190,0.141,0.149,-55.786,-85.144,43.518
0.163,0.175,0.192,-47.607,-89.172,42.480
0.146,0.207,0.234,-37.781,-92.468,42.969
0.122,0.236,0.268,-27.710,-97.595,45.410
0.090,0.260,0.298,-18.311,-103.760,47.058
0.040,0.278,0.334,-9.827,-109.863,46.143
-0.016,0.285,0.359,-3.418,-114.563,42.480
-0.077,0.286,0.379,-0.488,-117.493,35.461
-0.146,0.294,0.395,0.183,-119.568,24.963
-0.182,0.296,0.408,-1.282,-120.117,11.963
-0.208,0.274,0.408,-4.578,-121.643,-2.136
-0.227,0.248,0.412,-7.507,-125.183,-16.052
-0.258,0.217,0.430,-9.216,-129.761,-26.550
-0.302,0.192,0.447,-8.911,-133.301,-31.311
-0.357,0.171,0.451,-5.920,-136.292,-31.311
-0.420,0.155,0.454,-1.404,-138.428,-29.541
-0.488,0.151,0.462,4.639,-139.343,-27.649
-0.545,0.146,0.476,10.803,-138.916,-26.367
-0.605,0.133,0.492,16.113,-137.573,-26.733
-0.660,0.123,0.507,19.348,-134.766,-29.724
-0.704,0.110,0.524,18.555,-130.554,-35.156
-0.781,0.086,0.553,11.719,-125.061,-43.762
-0.834,0.051,0.528,-2.747,-116.882,-56.396
-0.897,0.005,0.467,-22.461,-110.657,-73.059
-0.930,-0.051,0.379,-39.429,-110.596,-88.867
-0.929,-0.106,0.303,-49.561,-113.708,-99.060
-0.947,-0.162,0.216,-49.988,-117.188,-101.746
-0.924,-0.210,0.155,-43.152,-121.704,-93.872
-0.922,-0.229,0.114,-29.663,-126.282,-78.674
-0.930,-0.226,0.116,-10.010,-130.737,-60.547
-0.970,-0.206,0.166,12.695,-135.193,-42.175
-1.064,-0.208,0.218,38.940,-138.489,-23.193
-1.179,-0.241,0.290,65.186,-142.151,-1.770
-1.331,-0.299,0.381,93.323,-146.606,18.555
-1.475,-0.388,0.487,119.019,-146.362,35.828
-1.597,-0.477,0.613,137.207,-140.747,46.936
-1.716,-0.582,0.736,143.372,-128.174,48.218
-1.770,-0.676,0.820,133.362,-109.070,41.321
-1.784,-0.757,0.863,112.183,-87.524,26.001
-1.767,-0.824,0.903,86.792,-67.383,4.333
-1.773,-0.857,0.892,62.683,-51.208,-15.625
-1.656,-0.867,0.897,45.471,-39.917,-29.236
-1.621,-0.921,0.792,47.729,-39.063,-46.448
-1.611,-0.925,0.886,54.382,-30.090,-50.659
-1.625,-0.911,0.830,50.964,-20.935,-38.208
-1.627,-0.863,0.802,50.720,-8.667,-18.982
-1.602,-0.797,0.772,45.044,2.319,3.906
-1.617,-0.736,0.752,40.588,8.972,19.714
-1.643,-0.674,0.749,42.358,12.634,24.780
-1.639,-0.654,0.789,49.744,18.250,22.461
-1.628,-0.653,0.814,53.467,27.893,15.137
-1.621,-0.671,0.801,50.659,38.879,6.714

-1.534,-0.701,0.752,41.626,58.472,-10.986
-1.486,-0.704,0.731,37.720,66.528,-17.944
-1.435,-0.696,0.704,33.691,74.524,-21.240
-1.375,-0.676,0.675,31.372,82.092,-22.217
-1.320,-0.661,0.655,31.433,88.257,-22.583
-1.275,-0.647,0.633,32.471,93.018,-22.034
-1.235,-0.637,0.614,35.217,97.412,-21.667
-1.203,-0.640,0.598,39.795,100.952,-22.461
-1.191,-0.652,0.587,44.800,103.943,-24.475
-1.172,-0.668,0.576,51.758,107.361,-26.001
-1.151,-0.689,0.574,58.350,112.244,-27.344
-1.127,-0.718,0.575,63.171,116.821,-29.663
-1.114,-0.764,0.558,65.247,121.582,-33.813
-1.111,-0.812,0.547,65.552,125.427,-38.818
-1.093,-0.873,0.539,63.416,129.822,-43.945
-1.067,-0.961,0.509,61.707,133.667,-50.354
-1.020,-1.077,0.495,57.190,136.841,-57.617
-0.987,-1.170,0.490,49.561,137.512,-64.880
-0.978,-1.241,0.493,42.053,137.390,-69.031
-0.945,-1.286,0.461,35.461,141.418,-65.002
-0.897,-1.307,0.440,29.968,147.705,-56.213
-0.864,-1.317,0.381,29.358,150.818,-48.462
-0.827,-1.348,0.346,29.236,153.137,-40.588
-0.779,-1.354,0.313,28.931,153.137,-33.081
-0.723,-1.359,0.278,28.442,153.381,-24.170
-0.664,-1.361,0.231,26.306,154.419,-12.695
-0.572,-1.345,0.173,23.865,154.053,-0.488
-0.501,-1.312,0.128,23.071,151.611,9.521
-0.426,-1.273,0.088,21.851,147.217,19.714
-0.352,-1.232,0.037,21.912,140.442,30.579
-0.324,-1.209,0.002,19.775,132.080,41.687
-0.262,-1.192,-0.039,17.456,122.803,51.331
-0.230,-1.160,-0.032,15.930,111.389,55.298
-0.195,-1.152,-0.033,16.602,101.685,55.664
-0.186,-1.175,-0.031,15.930,96.313,55.725
-0.152,-1.224,-0.046,9.216,92.468,56.702
-0.097,-1.259,-0.061,-2.991,88.867,56.763
-0.017,-1.285,-0.076,-16.663,85.144,57.251
0.012,-1.298,-0.080,-31.799,80.139,60.059
0.042,-1.296,-0.102,-45.898,75.012,67.200
0.070,-1.277,-0.126,-58.899,70.435,77.393
0.090,-1.260,-0.135,-68.726,64.697,88.867
0.104,-1.229,-0.120,-74.829,57.190,101.379
0.127,-1.177,-0.088,-76.843,49.805,114.441
0.152,-1.117,-0.066,-78.064,44.128,126.038
0.162,-1.050,-0.058,-79.895,37.781,135.620
0.178,-0.980,-0.049,-81.909,30.273,143.677
0.184,-0.915,-0.038,-85.205,22.766,149.231
0.178,-0.869,-0.024,-88.745,14.526,151.306
0.182,-0.803,-0.001,-92.896,6.958,150.208
0.194,-0.749,0.009,-97.961,0.916,145.325
0.196,-0.689,0.026,-105.286,-5.310,138.062
0.197,-0.631,0.036,-114.380,-11.414,129.517
0.197,-0.562,0.041,-121.704,-15.869,119.385
0.220,-0.489,0.046,-126.099,-19.897,109.436
0.246,-0.422,0.044,-130.859,-24.841,101.074
0.255,-0.363,0.031,-134.460,-31.433,95.276
0.284,-0.294,0.029,-134.277,-39.551,92.468
0.273,-0.247,0.034,-130.005,-48.462,92.224
0.264,-0.182,0.013,-124.329,-57.739,96.985
0.226,-0.126,0.029,-119.385,-67.566,105.103
0.184,-0.051,0.055,-110.352,-76.843,112.488
0.165,0.034,0.086,-96.313,-84.961,119.019
0.130,0.130,0.137,-83.618,-94.177,125.732
0.074,0.201,0.162,-71.716,-104.675,133.972
0.020,0.283,0.209,-58.655,-115.173,141.418
-0.054,0.329,0.258,-44.006,-123.108,145.752
-0.122,0.353,0.284,-32.959,-128.845,146.667
-0.178,0.389,0.337,-22.644,-135.376,143.799
-0.253,0.419,0.409,-14.282,-140.686,137.451
-0.300,0.469,0.478,-10.254,-143.127,130.066
-0.362,0.520,0.548,-8.057,-143.677,119.568
-0.419,0.583,0.613,-7.568,-144.287,105.835
-0.478,0.632,0.665,-9.705,-143.494,89.417
-0.538,0.628,0.676,-14.221,-141.541,69.580
-0.592,0.627,0.709,-15.747,-140.442,47.913
-0.639,0.611,0.762,-10.620,-140.320,29.602
-0.674,0.581,0.802,-2.625,-137.756,19.409
-0.710,0.552,0.836,6.470,-133.484,16.968
-0.789,0.560,0.881,18.372,-129.883,17.273
-0.872,0.542,0.927,30.762,-124.939,18.066
-0.934,0.514,0.968,40.833,-117.065,17.273
-0.987,0.475,0.984,48.828,-108.826,10.986
-1.009,0.436,0.981,52.368,-102.600,-0.122
-1.026,0.383,0.986,50.720,-99.121,-15.198
-1.046,0.312,0.976,47.729,-96.497,-30.884
-1.076,0.238,0.931,45.227,-93.262,-41.931
-1.051,0.167,0.887,44.434,-88.867,-46.814
-1.026,0.129,0.825,45.837,-83.252,-48.340
-1.026,0.087,0.749,49.194,-78.125,-48.035
-1.003,0.065,0.683,53.040,-75.500,-44.312
-0.984,0.047,0.628,56.458,-72.571,-41.626
-0.959,0.006,0.564,59.387,-68.298,-39.917
-0.889,-0.056,0.501,60.059,-65.735,-38.879
-0.863,-0.104,0.471,57.068,-68.481,-40.100
-0.870,-0.141,0.443,55.481,-71.533,-41.077
-0.848,-0.171,0.410,55.542,-70.068,-35.217
-0.814,-0.207,0.352,57.129,-65.063,-25.696
-0.787,-0.256,0.295,58.289,-61.096,-16.235
-0.784,-0.285,0.264,56.030,-60.669,-8.850
-0.846,-0.276,0.246,51.575,-61.218,-3.662
-0.902,-0.241,0.194,48.706,-59.204,1.404
-0.953,-0.193,0.173,50.415,-57.129,4.150
-1.004,-0.171,0.168,59.143,-55.176,-0.366
-1.083,-0.191,0.201,69.397,-52.979,-9.521
-1.198,-0.271,0.279,82.397,-51.880,-18.982
-1.345,-0.409,0.376,101.257,-48.462,-25.757
-1.403,-0.551,0.523,124.146,-40.283,-30.029
-1.462,-0.698,0.559,152.161,-38.025,-40.466
-1.525,-0.819,0.761,172.668,-26.245,-48.584
-1.552,-0.935,0.780,174.744,-13.184,-50.903
-1.582,-1.028,0.826,167.664,-1.709,-51.941
-1.588,-1.086,0.825,149.780,7.996,-47.974
-1.596,-1.098,0.799,131.165,17.395,-42.664
-1.613,-1.098,0.754,113.831,27.649,-37.659
-1.629,-1.093,0.697,98.938,38.330,-33.508
-1.622,-1.070,0.642,86.548,48.767,-32.227
-1.606,-1.048,0.609,76.111,56.946,-33.569
-1.593,-1.024,0.594,69.519,63.232,-33.752

-1.507,-0.918,0.603,69.336,76.965,-22.705
-1.449,-0.858,0.611,74.585,85.144,-14.343
-1.409,-0.816,0.610,80.811,91.370,-6.836
-1.369,-0.784,0.608,86.975,97.107,-2.930
-1.337,-0.760,0.607,90.149,102.051,-4.150
-1.313,-0.766,0.602,90.942,105.652,-10.132
-1.283,-0.798,0.595,89.478,108.154,-20.386
-1.284,-0.838,0.556,84.717,110.657,-32.532
-1.198,-0.884,0.563,78.003,112.793,-44.006
-1.224,-0.918,0.560,76.355,114.319,-57.434
-1.158,-0.940,0.557,69.336,118.652,-58.899
-1.112,-0.970,0.502,68.237,126.343,-58.044
-1.056,-1.000,0.457,67.688,132.935,-57.922
-1.001,-1.021,0.433,64.636,134.888,-56.519
-0.966,-1.053,0.416,62.988,134.644,-54.810
-0.917,-1.094,0.419,63.843,134.705,-51.697
-0.861,-1.128,0.434,65.186,135.071,-47.302
-0.821,-1.160,0.453,67.810,134.705,-41.443
-0.788,-1.196,0.451,70.007,134.460,-33.997
-0.780,-1.234,0.458,69.702,134.949,-27.466
-0.764,-1.280,0.488,63.293,137.512,-23.743
-0.756,-1.344,0.475,50.232,143.616,-27.039
-0.723,-1.413,0.467,32.715,150.146,-37.781
-0.650,-1.472,0.448,14.282,158.081,-52.063
-0.569,-1.499,0.418,-3.906,164.612,-67.017
-0.472,-1.497,0.371,-21.423,168.274,-76.660
-0.401,-1.479,0.299,-37.048,167.542,-78.064
-0.335,-1.441,0.221,-49.805,163.330,-72.388
-0.265,-1.396,0.150,-56.580,157.104,-62.256
-0.230,-1.339,0.109,-59.021,147.339,-50.232
-0.213,-1.287,0.089,-57.129,134.644,-35.461
-0.182,-1.245,0.083,-47.668,122.131,-16.357
-0.142,-1.209,0.067,-33.386,113.831,4.700
-0.110,-1.188,0.061,-19.958,107.605,26.794
-0.102,-1.185,0.055,-10.437,100.769,49.194
-0.094,-1.195,0.058,-3.723,93.872,70.374
-0.083,-1.213,0.073,-0.549,87.341,87.524
-0.098,-1.232,0.107,-3.052,81.421,100.891
-0.099,-1.239,0.131,-12.085,77.209,110.474
-0.085,-1.224,0.136,-26.306,74.951,115.906
-0.056,-1.189,0.112,-41.504,72.998,119.934
-0.012,-1.131,0.064,-53.711,70.496,124.634
0.030,-1.045,0.016,-59.998,67.749,130.920
0.089,-0.944,-0.025,-61.035,63.599,138.977
0.131,-0.833,-0.053,-60.852,57.190,146.545
0.153,-0.728,-0.083,-60.669,49.133,152.222
0.197,-0.594,-0.047,-58.777,40.039,154.907
0.237,-0.486,-0.028,-56.702,31.128,152.710
0.257,-0.388,-0.003,-56.641,20.691,146.423
0.269,-0.300,0.004,-58.044,8.911,138.672
0.272,-0.239,0.022,-61.157,-2.686,130.615
0.267,-0.190,0.042,-63.721,-13.428,123.474
0.260,-0.147,0.062,-65.552,-23.132,116.699
0.251,-0.114,0.076,-65.857,-32.776,111.450
0.243,-0.086,0.083,-65.002,-42.358,106.689
0.238,-0.062,0.092,-62.256,-51.331,102.722
0.209,-0.047,0.091,-57.007,-59.570,100.098
0.166,-0.039,0.093,-51.025,-67.688,99.426
0.145,-0.031,0.084,-46.814,-74.646,98.999
0.130,-0.036,0.065,-43.335,-79.956,95.398
0.108,-0.042,0.054,-41.443,-85.632,91.003
0.088,-0.046,0.041,-39.490,-90.576,87.341
0.058,-0.034,0.022,-36.499,-94.971,85.083
0.043,-0.022,-0.010,-33.752,-100.525,83.313
0.026,-0.006,-0.042,-30.701,-107.239,80.139
-0.005,0.013,-0.063,-26.001,-117.249,77.332
-0.059,0.036,-0.060,-19.470,-129.028,76.965
-0.124,0.060,-0.057,-14.465,-139.587,78.125
-0.193,0.082,-0.051,-10.620,-148.621,78.369
-0.260,0.119,0.011,-7.874,-157.715,75.989
-0.332,0.145,0.085,-4.639,-165.955,71.106
-0.426,0.154,0.149,-2.563,-173.401,67.139
-0.522,0.163,0.233,-0.549,-178.406,64.209
-0.619,0.185,0.328,4.395,-179.932,61.035
-0.723,0.216,0.413,13.489,-179.260,58.716
-0.806,0.235,0.470,25.208,-177.185,57.617
-0.894,0.236,0.527,37.109,-175.110,55.298
-1.009,0.217,0.612,51.636,-173.767,49.316
-1.133,0.187,0.758,71.472,-171.082,41.992
-1.234,0.134,0.900,91.675,-159.790,34.485
-1.294,0.059,0.999,105.652,-139.343,26.917
-1.285,-0.019,1.020,112.793,-116.943,17.212
-1.235,-0.095,1.007,113.403,-100.342,5.554
-1.161,-0.192,0.982,109.192,-93.079,-5.615
-1.096,-0.302,0.939,98.389,-93.567,-15.320
-1.034,-0.391,0.904,83.130,-97.595,-21.729
-0.989,-0.445,0.847,67.993,-102.173,-24.597
-0.959,-0.465,0.781,50.537,-106.384,-22.949
-0.987,-0.427,0.700,31.433,-111.755,-17.822
-1.045,-0.366,0.609,17.639,-115.845,-12.817
-1.084,-0.301,0.595,13.794,-114.807,-7.751
-1.125,-0.240,0.597,18.188,-106.384,-3.174
-1.147,-0.187,0.620,30.212,-94.360,0.305
-1.169,-0.130,0.644,46.143,-83.496,3.601
-1.198,-0.101,0.666,62.866,-73.975,5.798
-1.279,-0.088,0.679,74.768,-63.782,6.348
-1.326,-0.085,0.678,83.496,-52.917,2.014
-1.341,-0.143,0.611,92.590,-46.997,-13.245
-1.451,-0.169,0.659,103.210,-37.598,-37.598
-1.498,-0.250,0.637,106.995,-27.832,-60.730
-1.544,-0.345,0.619,109.802,-17.273,-83.191
-1.586,-0.430,0.589,106.750,-8.301,-97.351
-1.614,-0.517,0.563,105.652,-2.686,-105.286
-1.650,-0.615,0.537,108.948,3.357,-109.497
-1.689,-0.721,0.516,114.441,11.230,-109.192
-1.734,-0.842,0.508,118.347,18.005,-107.178
-1.808,-0.959,0.510,119.568,23.010,-105.164
-1.850,-1.071,0.519,119.934,28.931,-103.088
-1.851,-1.167,0.542,117.859,37.109,-100.159
-1.831,-1.236,0.556,112.305,46.204,-95.337
-1.796,-1.277,0.562,103.882,55.359,-86.670
-1.754,-1.279,0.556,94.421,65.186,-75.745
-1.706,-1.260,0.549,87.769,76.355,-64.331
-1.637,-1.230,0.534,81.909,87.891,-53.772
-1.588,-1.199,0.512,75.378,96.680,-44.678
-1.549,-1.168,0.486,69.519,103.271,-36.499
-1.500,-1.119,0.454,64.880,110.352,-30.151
-1.413,-1.066,0.442,61.401,117.065,-25.391
-1.399,-1.059,0.384,61.523,120.117,-25.085

-1.281,-1.020,0.347,54.077,128.479,-21.423
-1.227,-1.010,0.302,52.673,134.094,-20.142
-1.168,-1.001,0.273,49.500,138.000,-19.348
-1.129,-1.022,0.241,47.180,140.686,-18.677
-1.082,-1.063,0.228,46.387,142.517,-17.944
-1.009,-1.111,0.211,45.532,144.897,-18.250
-0.961,-1.162,0.189,42.358,145.691,-18.250
-0.921,-1.200,0.166,39.307,144.592,-15.198
-0.902,-1.257,0.136,37.415,144.958,-10.132
-0.836,-1.302,0.131,35.767,146.179,-4.211
-0.788,-1.336,0.136,33.936,144.897,0.244
-0.751,-1.359,0.137,30.945,142.578,7.263
-0.736,-1.384,0.137,28.687,142.700,16.052
-0.738,-1.432,0.138,27.100,142.822,25.513
-0.739,-1.499,0.141,25.085,142.090,34.912
-0.708,-1.561,0.146,20.386,143.188,42.358
-0.630,-1.595,0.124,11.841,146.790,46.997
-0.545,-1.560,0.061,1.282,149.475,47.913
-0.411,-1.496,-0.030,-8.728,148.376,48.279
-0.276,-1.438,-0.129,-15.747,143.250,48.523
-0.119,-1.384,-0.219,-17.212,132.996,51.941
-0.049,-1.362,-0.289,-15.869,117.798,60.913
-0.011,-1.350,-0.321,-11.047,101.807,77.637
0.003,-1.335,-0.315,-4.883,90.149,98.450
0.016,-1.317,-0.257,-5.981,83.496,118.103
0.037,-1.266,-0.167,-16.907,78.979,131.653
0.078,-1.190,-0.088,-36.621,74.829,136.536
0.093,-1.089,-0.022,-63.599,70.313,134.155
0.101,-0.976,0.006,-93.201,65.674,129.211
0.141,-0.867,-0.009,-119.934,62.683,124.878
0.193,-0.754,-0.056,-140.503,60.181,121.765
0.232,-0.639,-0.119,-151.611,55.908,119.446
0.269,-0.517,-0.164,-151.794,49.072,118.774
0.319,-0.418,-0.166,-143.677,40.222,119.812
0.344,-0.331,-0.137,-131.958,30.640,120.483
0.351,-0.265,-0.092,-120.667,19.226,120.483
0.343,-0.217,-0.041,-110.657,6.592,118.469
0.339,-0.183,0.004,-102.356,-4.456,113.342
0.326,-0.164,0.042,-95.947,-15.381,106.995
0.314,-0.148,0.076,-90.942,-26.794,101.501
0.299,-0.123,0.114,-87.280,-37.170,97.961
0.267,-0.104,0.156,-84.656,-46.021,96.436
0.235,-0.071,0.191,-83.130,-53.406,95.947
0.212,-0.017,0.221,-82.092,-59.265,94.910
0.173,0.050,0.252,-80.688,-65.735,92.529
0.135,0.117,0.275,-79.346,-71.777,88.928
0.097,0.177,0.278,-77.942,-76.355,84.229
0.072,0.226,0.271,-74.707,-80.078,80.200
0.047,0.263,0.269,-68.726,-84.351,76.660
0.020,0.295,0.274,-60.852,-90.271,74.341
-0.010,0.322,0.290,-50.903,-95.154,72.754
-0.037,0.342,0.316,-40.100,-99.243,70.862
-0.063,0.345,0.339,-29.053,-102.844,68.481
-0.100,0.338,0.363,-18.677,-106.201,65.613
-0.136,0.328,0.408,-7.996,-110.107,63.538
-0.200,0.315,0.454,2.563,-114.990,63.232
-0.274,0.298,0.493,12.268,-119.507,64.941
-0.345,0.290,0.530,19.897,-122.681,65.857
-0.418,0.284,0.552,24.170,-124.573,62.866
-0.474,0.282,0.548,23.743,-125.977,54.565
-0.522,0.264,0.520,20.142,-127.930,40.955
-0.547,0.246,0.502,15.076,-130.249,24.719
-0.562,0.217,0.471,10.559,-130.981,7.568
-0.576,0.180,0.431,9.033,-131.042,-6.592
-0.591,0.122,0.400,9.155,-131.653,-16.174
-0.617,0.079,0.363,13.550,-133.362,-21.179
-0.668,0.023,0.334,21.912,-135.071,-22.156
-0.729,-0.031,0.312,32.532,-135.864,-18.555
-0.791,-0.056,0.293,46.631,-135.376,-13.062
-0.849,-0.072,0.299,63.171,-133.728,-10.193
-0.903,-0.088,0.302,76.599,-130.615,-9.888
-0.960,-0.107,0.298,83.984,-128.723,-12.512
-1.013,-0.159,0.317,88.867,-129.211,-19.043
-1.064,-0.219,0.351,92.590,-130.432,-27.771
-1.100,-0.298,0.404,94.727,-131.165,-34.485
-1.140,-0.382,0.475,92.285,-130.371,-36.621
-1.149,-0.432,0.559,86.853,-127.258,-36.499
-1.200,-0.453,0.614,78.125,-121.338,-36.194
-1.280,-0.448,0.634,69.031,-114.563,-34.363
-1.363,-0.430,0.641,64.758,-109.253,-31.006
-1.437,-0.424,0.670,66.040,-104.797,-27.222
-1.482,-0.442,0.703,71.350,-100.281,-22.034
-1.520,-0.463,0.724,76.660,-95.886,-16.357
-1.547,-0.473,0.751,80.933,-91.187,-11.353
-1.565,-0.494,0.782,83.618,-84.473,-7.874
-1.611,-0.526,0.792,83.008,-75.684,-5.188
-1.617,-0.533,0.793,79.651,-64.636,-4.456
-1.617,-0.540,0.771,79.895,-58.289,-13.367
-1.714,-0.526,0.808,86.548,-44.373,-27.039
-1.736,-0.538,0.746,80.505,-30.884,-33.997
-1.754,-0.558,0.699,79.590,-17.090,-39.795
-1.729,-0.589,0.659,78.064,-5.432,-41.443
-1.712,-0.632,0.639,78.491,2.747,-41.870
-1.700,-0.671,0.621,79.895,10.010,-40.771
-1.687,-0.726,0.613,81.482,17.822,-38.452
-1.684,-0.771,0.606,82.153,26.245,-36.255
-1.661,-0.808,0.594,80.017,36.133,-33.691
-1.630,-0.812,0.559,74.585,46.387,-30.884
-1.594,-0.798,0.519,67.932,54.626,-29.236
-1.557,-0.774,0.484,62.378,61.890,-30.151
-1.508,-0.747,0.455,59.570,69.092,-31.677
-1.450,-0.719,0.423,57.739,76.294,-31.982
-1.396,-0.701,0.385,57.373,82.397,-32.043
-1.342,-0.686,0.354,59.570,86.731,-32.104
-1.296,-0.684,0.330,64.392,89.905,-31.799
-1.252,-0.684,0.313,71.411,92.163,-30.701
-1.214,-0.686,0.297,79.346,93.262,-28.931
-1.175,-0.689,0.284,88.318,93.750,-27.466
-1.139,-0.698,0.267,98.389,92.896,-25.635
-1.133,-0.718,0.256,107.727,91.187,-23.376
-1.168,-0.754,0.258,116.760,91.370,-21.179
-1.215,-0.799,0.253,124.634,97.351,-18.860
-1.196,-0.866,0.238,127.625,110.229,-18.982
-1.171,-0.969,0.229,120.483,121.948,-26.428
-1.150,-1.062,0.215,105.103,127.991,-40.833
-1.108,-1.175,0.217,85.876,131.042,-55.054
-1.030,-1.288,0.215,66.711,135.803,-66.772
-0.963,-1.370,0.212,46.509,138.611,-72.571
-0.937,-1.418,0.161,31.372,138.123,-67.871

-0.869,-1.382,0.046,22.766,143.372,-24.719
-0.851,-1.323,-0.006,24.048,143.127,0.427
-0.840,-1.250,-0.044,26.001,139.160,21.667
-0.833,-1.207,-0.063,25.452,134.460,37.598
-0.818,-1.175,-0.084,22.644,130.920,47.668
-0.778,-1.153,-0.095,18.127,129.028,51.514
-0.717,-1.160,-0.094,11.658,128.357,49.744
-0.658,-1.191,-0.088,3.601,126.221,45.227
-0.587,-1.224,-0.082,-4.456,123.169,41.016
-0.532,-1.240,-0.065,-11.841,119.629,37.964
-0.493,-1.241,-0.064,-16.541,116.699,37.903
-0.447,-1.224,-0.076,-20.691,114.136,42.053
-0.387,-1.201,-0.073,-23.071,110.840,47.974
-0.341,-1.184,-0.061,-25.330,106.873,54.077
-0.307,-1.167,-0.045,-29.663,101.501,60.730
-0.272,-1.138,-0.028,-35.461,95.703,67.383
-0.239,-1.095,-0.001,-42.297,90.454,72.571
-0.198,-1.054,0.016,-50.720,86.243,77.393
-0.147,-1.007,0.021,-60.852,83.191,82.336
-0.084,-0.952,0.042,-69.580,79.468,85.999
-0.023,-0.890,0.079,-77.271,76.172,88.379
0.039,-0.824,0.097,-84.656,74.341,89.355
0.117,-0.778,0.105,-90.881,71.899,87.830
0.172,-0.744,0.098,-97.290,66.528,83.435
0.201,-0.719,0.092,-102.356,57.495,79.468
0.202,-0.690,0.088,-104.187,47.241,78.308
0.204,-0.654,0.093,-102.905,37.842,80.750
0.214,-0.623,0.113,-99.670,29.114,85.388
0.212,-0.599,0.147,-95.764,19.470,90.088
0.187,-0.556,0.192,-92.529,10.498,94.299
0.175,-0.509,0.225,-90.393,4.883,97.107
0.160,-0.463,0.244,-90.271,1.160,97.107
0.151,-0.403,0.271,-90.637,-2.197,93.506
0.161,-0.351,0.298,-91.675,-4.395,87.769
0.186,-0.322,0.307,-93.384,-7.324,80.994
0.212,-0.284,0.321,-96.069,-11.536,74.402
0.226,-0.241,0.346,-95.825,-17.395,69.702
0.235,-0.191,0.372,-93.384,-23.010,69.763
0.250,-0.128,0.384,-91.064,-27.161,73.425
0.254,-0.059,0.384,-86.609,-33.813,78.491
0.253,0.013,0.405,-80.078,-44.373,85.083
0.221,0.069,0.418,-73.486,-54.749,92.834
0.217,0.142,0.427,-65.857,-64.331,100.647
0.144,0.179,0.439,-57.495,-73.059,105.408
0.080,0.226,0.459,-49.927,-80.139,107.483
0.035,0.255,0.483,-42.603,-84.412,105.591
-0.008,0.267,0.511,-37.842,-87.036,98.572
-0.054,0.272,0.534,-34.668,-89.661,89.050
-0.086,0.295,0.548,-34.912,-91.370,77.515
-0.112,0.308,0.569,-35.950,-91.858,64.575
-0.123,0.306,0.567,-37.415,-91.858,50.232
-0.143,0.294,0.551,-39.246,-92.407,36.560
-0.150,0.274,0.537,-40.894,-93.567,24.414
-0.141,0.255,0.520,-41.016,-94.543,13.977
-0.138,0.233,0.498,-39.490,-97.595,6.287
-0.158,0.216,0.482,-36.133,-102.539,1.953
-0.181,0.207,0.485,-30.945,-107.239,1.038
-0.209,0.196,0.488,-23.682,-110.779,3.479
-0.254,0.194,0.494,-15.625,-114.807,8.179
-0.331,0.206,0.495,-6.104,-119.568,12.390
-0.418,0.211,0.490,4.089,-123.230,16.174
-0.544,0.192,0.490,15.076,-126.709,18.188
-0.663,0.155,0.513,29.053,-129.700,19.165
-0.773,0.103,0.533,44.556,-129.761,20.508
-0.843,0.038,0.548,57.983,-126.038,22.095
-0.911,-0.018,0.569,68.726,-121.582,21.057
-0.950,-0.070,0.578,75.806,-115.662,17.456
-0.959,-0.119,0.571,77.026,-107.788,11.108
-0.957,-0.167,0.560,71.838,-101.868,1.282
-0.933,-0.216,0.543,61.218,-98.389,-10.986
-0.890,-0.280,0.514,46.692,-96.802,-25.574
-0.847,-0.312,0.511,31.494,-99.304,-42.542
-0.845,-0.307,0.513,16.541,-105.042,-54.810
-0.861,-0.280,0.497,4.028,-108.765,-56.702
-0.907,-0.245,0.474,-0.244,-107.727,-50.781
-0.986,-0.218,0.432,5.554,-104.126,-41.077
-1.101,-0.190,0.406,18.982,-104.492,-28.198
-1.211,-0.176,0.408,38.513,-106.567,-12.451
-1.300,-0.169,0.441,58.655,-104.675,1.160
-1.353,-0.183,0.482,73.792,-99.182,8.728
-1.392,-0.206,0.503,81.238,-92.773,8.240
-1.402,-0.234,0.518,83.435,-85.022,0.671
-1.396,-0.267,0.521,81.116,-75.745,-10.071
-1.394,-0.304,0.511,74.585,-67.017,-21.057
-1.378,-0.337,0.515,67.993,-59.204,-30.884
-1.268,-0.359,0.523,63.660,-52.673,-37.781
-1.397,-0.325,0.618,61.157,-49.316,-44.250
-1.449,-0.396,0.496,80.933,-47.852,-52.490
-1.455,-0.374,0.528,84.167,-38.147,-53.528
-1.470,-0.388,0.500,86.609,-32.227,-48.218
-1.465,-0.401,0.486,83.801,-26.001,-42.175
-1.459,-0.400,0.479,80.505,-21.729,-34.302
-1.463,-0.408,0.484,82.397,-18.433,-28.320
-1.462,-0.429,0.493,87.036,-14.465,-24.109
-1.485,-0.458,0.494,90.637,-10.376,-20.996
-1.501,-0.492,0.499,94.055,-5.005,-18.188
-1.516,-0.525,0.503,95.337,2.502,-15.930
-1.504,-0.565,0.490,92.957,11.536,-15.625
-1.501,-0.602,0.476,86.548,18.494,-19.104
-1.501,-0.631,0.484,80.383,24.048,-23.865
-1.474,-0.655,0.488,75.073,32.410,-26.611
-1.445,-0.678,0.477,71.106,42.358,-26.733
-1.430,-0.687,0.454,69.031,49.622,-25.818
-1.410,-0.684,0.439,69.763,55.176,-23.865
-1.396,-0.696,0.424,73.730,60.425,-21.057
-1.378,-0.721,0.411,79.224,64.636,-17.822
-1.362,-0.740,0.394,84.106,67.810,-15.198
-1.358,-0.764,0.384,88.623,71.472,-13.855
-1.357,-0.796,0.381,93.323,76.416,-13.123
-1.356,-0.838,0.389,96.497,82.031,-13.367
-1.366,-0.892,0.397,97.229,88.928,-15.747
-1.373,-0.950,0.401,95.337,95.032,-19.409
-1.357,-1.010,0.404,91.614,101.013,-24.170
-1.330,-1.076,0.373,84.656,107.178,-30.029
-1.293,-1.134,0.346,75.989,109.802,-36.743
-1.283,-1.200,0.307,67.871,108.276,-42.725
-1.290,-1.269,0.273,64.514,106.140,-42.603
-1.291,-1.334,0.249,67.932,105.957,-33.264
-1.279,-1.391,0.241,74.280,109.436,-17.273

-1.201,-1.462,0.240,79.529,119.385,21.301
-1.128,-1.451,0.229,71.289,123.718,36.804
-1.047,-1.410,0.199,57.495,128.967,46.753
-0.961,-1.341,0.160,39.856,134.888,53.284
-0.860,-1.249,0.111,23.376,139.954,57.617
-0.753,-1.163,0.076,8.606,143.066,59.204
-0.661,-1.112,0.042,-2.991,143.066,58.533
-0.582,-1.078,-0.004,-13.062,140.625,57.129
-0.521,-1.045,-0.024,-20.264,136.536,56.213
-0.464,-1.022,-0.020,-24.048,132.263,56.702
-0.423,-1.023,-0.009,-25.696,127.625,58.899
-0.401,-1.026,0.002,-26.978,123.474,61.218
-0.358,-1.026,0.021,-28.748,119.446,62.683
-0.316,-1.020,0.024,-32.898,115.173,63.904
-0.273,-1.022,0.015,-40.222,110.901,65.002
-0.236,-1.022,0.009,-48.462,106.140,66.589
-0.190,-1.025,0.002,-56.641,100.647,69.092
-0.140,-1.009,-0.001,-64.514,95.154,72.571
-0.108,-0.982,-0.007,-73.425,89.905,78.552
-0.082,-0.948,-0.009,-79.346,84.717,87.341
-0.039,-0.906,-0.005,-82.703,80.322,97.778
-0.000,-0.857,-0.014,-85.999,76.050,108.154
0.023,-0.798,-0.005,-90.149,69.946,117.493
0.028,-0.736,0.034,-92.407,62.256,124.939
0.069,-0.673,0.054,-94.727,57.068,130.249
0.103,-0.597,0.050,-98.999,52.979,132.019
0.129,-0.528,0.053,-102.722,47.363,129.639
0.154,-0.466,0.059,-104.187,41.077,125.916
0.182,-0.411,0.066,-103.699,35.645,122.620
0.213,-0.371,0.077,-101.807,28.442,119.751
0.228,-0.333,0.096,-97.595,18.738,117.615
0.241,-0.292,0.112,-93.628,9.949,116.028
0.248,-0.250,0.118,-89.539,1.892,114.014
0.243,-0.191,0.124,-85.388,-5.920,110.779
0.240,-0.140,0.127,-81.726,-12.573,106.445
0.248,-0.103,0.126,-78.918,-19.592,100.464
0.248,-0.067,0.142,-76.721,-27.954,93.079
0.247,-0.047,0.146,-74.890,-36.621,85.205
0.251,-0.031,0.156,-72.754,-45.410,79.773
0.245,-0.018,0.169,-69.397,-54.688,77.393
0.226,0.010,0.176,-64.392,-64.941,78.552
0.193,0.047,0.194,-58.044,-75.500,82.275
0.133,0.076,0.222,-49.255,-85.144,87.036
0.071,0.101,0.239,-39.001,-92.468,92.468
0.015,0.136,0.244,-28.809,-98.938,96.436
-0.057,0.165,0.274,-19.470,-106.628,95.886
-0.139,0.205,0.350,-10.620,-112.976,91.980
-0.187,0.242,0.415,-4.150,-115.295,85.083
-0.235,0.263,0.458,-1.465,-116.516,74.097
-0.286,0.265,0.497,-1.343,-117.371,59.875
-0.323,0.260,0.551,-0.305,-118.225,44.800
-0.341,0.242,0.581,-0.732,-117.798,31.128
-0.359,0.227,0.587,-2.930,-117.676,19.592
-0.378,0.214,0.581,-4.700,-118.286,9.705
-0.399,0.200,0.562,-5.371,-120.728,2.502
-0.447,0.180,0.544,-4.761,-124.390,-2.441
-0.486,0.168,0.550,-0.977,-127.136,-5.859
-0.531,0.155,0.559,6.775,-129.272,-6.897
-0.586,0.136,0.560,16.113,-131.592,-5.676
-0.656,0.115,0.562,24.963,-133.423,-4.150
-0.723,0.090,0.571,32.837,-133.911,-4.395
-0.796,0.052,0.577,37.842,-132.507,-7.324
-0.900,0.008,0.579,40.955,-130.859,-11.536
-0.984,-0.041,0.586,45.593,-129.333,-15.503
-1.050,-0.094,0.596,50.842,-126.770,-19.958
-1.096,-0.154,0.599,55.237,-123.108,-25.330
-1.113,-0.194,0.610,57.007,-119.202,-31.433
-1.117,-0.237,0.605,56.580,-114.380,-38.513
-1.101,-0.269,0.594,53.162,-108.459,-44.861
-1.103,-0.295,0.554,47.058,-103.394,-49.988
-1.111,-0.307,0.513,40.405,-99.365,-54.688
-1.133,-0.308,0.468,34.912,-95.093,-59.570
-1.174,-0.313,0.424,32.654,-92.102,-62.439
-1.203,-0.332,0.395,34.485,-88.745,-61.951
-1.267,-0.361,0.387,41.077,-86.731,-58.228
-1.316,-0.394,0.416,54.321,-85.815,-51.025
-1.351,-0.424,0.474,71.899,-84.290,-40.161
-1.402,-0.461,0.527,88.562,-81.726,-27.527
-1.464,-0.495,0.596,102.234,-79.895,-14.832
-1.513,-0.536,0.663,110.718,-76.965,-4.578
-1.586,-0.585,0.710,112.366,-71.472,0.305
-1.607,-0.601,0.755,108.154,-63.110,-0.549
-1.616,-0.647,0.808,107.544,-56.702,-12.939
-1.660,-0.668,0.904,113.647,-41.626,-29.480
-1.635,-0.684,0.878,99.243,-23.865,-35.522
-1.576,-0.678,0.836,83.130,-5.371,-36.377
-1.506,-0.639,0.762,63.599,8.301,-33.020
-1.451,-0.608,0.725,51.086,16.052,-28.687
-1.432,-0.561,0.675,47.302,21.484,-22.888
-1.427,-0.504,0.616,49.194,27.893,-15.259
-1.417,-0.438,0.567,55.054,35.400,-8.362
-1.404,-0.399,0.539,63.049,40.833,-5.493
-1.381,-0.392,0.529,70.679,44.373,-5.859
-1.359,-0.409,0.520,76.111,47.668,-7.996
-1.338,-0.435,0.510,79.712,51.880,-10.681
-1.323,-0.458,0.497,81.604,57.983,-13.489
-1.291,-0.484,0.475,80.505,66.406,-16.296
-1.256,-0.507,0.446,76.172,73.853,-19.470
-1.234,-0.540,0.418,70.984,78.003,-23.682
-1.206,-0.579,0.394,67.078,82.458,-27.588
-1.194,-0.607,0.358,63.782,87.158,-30.579
-1.159,-0.644,0.351,64.148,87.952,-32.532
-1.127,-0.671,0.358,65.918,86.914,-34.180
-1.141,-0.722,0.338,67.871,87.280,-34.912
-1.138,-0.753,0.346,71.045,87.097,-32.715
-1.152,-0.805,0.347,76.355,89.050,-31.189
-1.150,-0.859,0.345,79.407,94.971,-30.029
-1.142,-0.914,0.350,78.430,100.769,-30.701
-1.122,-0.970,0.358,73.608,103.638,-34.973
-1.129,-1.042,0.343,66.162,107.605,-40.588
-1.102,-1.076,0.330,56.641,112.061,-43.030
-1.064,-1.123,0.307,50.110,115.784,-43.152
-1.031,-1.150,0.298,45.532,119.385,-42.175
-1.016,-1.179,0.289,44.678,122.375,-37.720
-0.975,-1.201,0.287,44.495,125.000,-28.625
-0.926,-1.214,0.266,45.166,127.502,-17.700
-0.878,-1.223,0.249,44.983,130.676,-8.606
-0.845,-1.230,0.217,41.809,132.141,-2.197
-0.801,-1.232,0.204,36.926,131.226,2.930

-0.704,-1.241,0.161,22.522,128.418,11.597
-0.661,-1.239,0.141,15.015,125.427,14.587
-0.608,-1.246,0.106,7.874,122.681,17.639
-0.557,-1.245,0.091,1.038,118.164,20.752
-0.514,-1.257,0.085,-3.296,112.183,24.536
-0.461,-1.264,0.075,-6.775,108.459,30.273
-0.413,-1.257,0.066,-10.315,105.713,38.879
-0.381,-1.243,0.063,-14.038,101.624,48.279
-0.340,-1.223,0.071,-17.700,97.351,56.335
-0.299,-1.195,0.089,-23.682,93.262,62.988
-0.269,-1.175,0.093,-32.227,88.806,67.383
-0.248,-1.157,0.098,-42.053,83.984,70.862
-0.216,-1.136,0.104,-50.171,79.712,74.402
-0.179,-1.113,0.109,-56.824,76.599,78.491
-0.146,-1.090,0.106,-62.805,72.815,84.106
-0.113,-1.067,0.110,-67.444,67.444,90.698
-0.080,-1.039,0.112,-70.618,62.134,98.022
-0.060,-1.020,0.114,-73.242,56.763,106.140
-0.049,-0.992,0.121,-75.195,50.537,113.647
-0.030,-0.950,0.132,-76.355,44.434,120.117
-0.011,-0.903,0.144,-78.552,38.879,125.488
0.020,-0.854,0.149,-82.703,33.875,130.066
0.042,-0.794,0.151,-88.196,28.992,133.057
0.075,-0.726,0.151,-93.628,24.719,134.521
0.107,-0.670,0.144,-98.511,21.118,134.338
0.135,-0.604,0.133,-102.478,16.357,132.385
0.165,-0.547,0.133,-105.469,9.399,128.845
0.186,-0.495,0.133,-109.131,2.747,125.305
0.198,-0.440,0.129,-112.549,-2.930,122.253
0.203,-0.375,0.124,-113.403,-8.972,118.713
0.207,-0.312,0.120,-111.938,-14.893,114.563
0.236,-0.238,0.136,-110.229,-21.851,110.413
0.258,-0.190,0.130,-109.985,-30.029,105.896
0.245,-0.147,0.135,-108.521,-39.307,101.257
0.236,-0.096,0.126,-106.079,-48.523,99.121
0.216,-0.049,0.126,-101.013,-58.411,98.877
0.190,0.004,0.135,-94.910,-69.214,99.915
0.149,0.052,0.146,-88.318,-79.102,101.868
0.102,0.117,0.171,-79.468,-87.646,103.943
0.038,0.162,0.204,-67.017,-94.910,105.652
-0.000,0.233,0.247,-54.382,-101.074,106.140
-0.052,0.277,0.300,-41.260,-107.361,104.736
-0.077,0.323,0.354,-29.846,-114.014,101.074
-0.130,0.349,0.396,-22.217,-119.202,94.788
-0.189,0.351,0.412,-17.212,-122.742,88.074
-0.247,0.353,0.433,-12.024,-126.221,79.834
-0.304,0.356,0.464,-6.104,-128.601,70.129
-0.349,0.350,0.502,-0.671,-129.333,59.692
-0.397,0.336,0.540,4.211,-129.272,49.561
-0.432,0.322,0.577,8.179,-129.333,39.795
-0.471,0.302,0.616,12.756,-130.493,30.029
-0.515,0.273,0.634,16.602,-132.141,21.179
-0.545,0.245,0.637,19.287,-133.301,13.855
-0.572,0.214,0.629,21.912,-134.827,7.629
-0.613,0.178,0.619,24.353,-136.108,2.319
-0.681,0.148,0.619,26.550,-136.414,-0.793
-0.782,0.117,0.608,29.846,-134.338,-1.831
-0.859,0.075,0.577,33.447,-130.554,-1.892
-0.918,0.030,0.542,37.354,-128.052,-2.014
-0.966,-0.015,0.505,41.748,-127.441,-2.197
-0.988,-0.056,0.481,47.302,-127.319,-1.648
-1.000,-0.092,0.442,53.223,-125.977,-0.061
-1.001,-0.111,0.404,60.059,-124.329,4.089
-0.972,-0.131,0.370,66.223,-122.375,9.094
-0.972,-0.158,0.338,71.228,-119.751,12.085
-1.031,-0.189,0.297,75.562,-117.554,12.695
-1.092,-0.210,0.285,79.834,-114.441,13.550
-1.115,-0.239,0.282,83.740,-109.680,13.367
-1.104,-0.255,0.305,85.205,-103.882,8.972
-1.109,-0.286,0.324,84.534,-99.915,2.319
-1.106,-0.308,0.365,82.214,-99.304,-1.953
-1.122,-0.315,0.422,79.590,-99.548,-2.441
-1.165,-0.315,0.459,78.918,-96.130,1.404
-1.209,-0.305,0.481,80.505,-89.539,10.132
-1.254,-0.309,0.493,83.984,-81.848,16.846
-1.304,-0.333,0.488,86.548,-74.768,18.921
-1.298,-0.357,0.406,87.524,-67.383,18.066
-1.388,-0.355,0.495,91.003,-62.805,9.216
-1.454,-0.409,0.466,108.276,-53.162,-4.456
-1.438,-0.442,0.432,108.459,-40.588,-13.611
-1.432,-0.512,0.391,109.924,-28.809,-20.264
-1.405,-0.584,0.345,103.088,-18.250,-22.827
-1.380,-0.638,0.311,96.130,-10.864,-22.888
-1.368,-0.687,0.273,92.468,-3.784,-21.179
-1.381,-0.740,0.237,90.210,3.845,-16.846
-1.414,-0.776,0.215,86.670,11.902,-12.390
-1.420,-0.800,0.185,82.947,21.057,-10.925
-1.442,-0.819,0.153,78.796,28.687,-13.123
-1.468,-0.847,0.133,78.003,32.288,-17.700
-1.471,-0.885,0.136,81.238,34.485,-20.996
-1.473,-0.930,0.143,87.524,37.415,-20.142
-1.464,-0.966,0.163,95.764,41.016,-14.648
-1.452,-1.006,0.194,105.286,44.556,-8.240
-1.458,-1.037,0.241,111.938,48.645,-2.136
-1.451,-1.058,0.262,114.990,54.688,2.075
-1.438,-1.069,0.271,114.136,61.707,3.967
-1.426,-1.127,0.308,110.779,67.810,2.625
-1.399,-1.161,0.309,107.971,74.707,-0.732
-1.305,-1.188,0.341,100.586,81.421,-5.432
-1.365,-1.259,0.326,94.421,88.196,-18.066
-1.316,-1.275,0.342,76.416,92.896,-24.780
-1.259,-1.293,0.308,64.575,101.074,-24.780
-1.222,-1.343,0.244,58.044,111.694,-26.855
-1.169,-1.367,0.215,49.866,117.615,-26.184
-1.123,-1.394,0.173,42.480,120.972,-23.926
-1.102,-1.414,0.140,37.354,123.840,-18.494
-1.082,-1.438,0.095,33.569,125.977,-9.827
-1.068,-1.465,0.070,31.128,126.526,-2.380
-1.062,-1.500,0.069,31.677,126.099,3.601
-1.056,-1.552,0.082,33.691,125.122,11.597
-1.059,-1.606,0.096,35.889,124.878,21.362
-1.057,-1.640,0.135,38.696,125.366,31.860
-1.016,-1.673,0.176,39.063,126.770,41.687
-0.977,-1.691,0.211,34.424,128.601,50.049
-0.927,-1.682,0.248,24.719,130.310,57.983
-0.870,-1.641,0.286,10.742,133.484,65.186
-0.788,-1.564,0.308,-7.141,140.076,70.862
-0.685,-1.462,0.301,-29.419,148.865,75.073
-0.579,-1.354,0.266,-54.138,156.860,76.660

-1.288,-0.571,0.388,81.360,-48.340,-6.287
-1.255,-0.590,0.352,81.787,-40.710,-5.615
-1.353,-0.626,0.403,87.891,-39.856,-13.611
-1.423,-0.657,0.471,100.952,-34.302,-20.264
-1.469,-0.705,0.470,99.670,-26.001,-17.639
-1.491,-0.742,0.479,100.342,-15.991,-11.475
-1.480,-0.790,0.488,99.182,-5.920,-2.075
-1.487,-0.829,0.511,98.999,0.061,5.981
-1.506,-0.868,0.548,99.487,4.822,11.780
-1.522,-0.913,0.600,98.999,11.230,15.381
-1.528,-0.926,0.616,97.046,19.592,17.151
-1.513,-0.920,0.609,90.637,28.320,16.296
-1.474,-0.888,0.583,81.726,38.269,12.207
-1.415,-0.864,0.534,69.641,47.119,5.493
-1.376,-0.831,0.490,57.129,52.368,-2.930
-1.332,-0.815,0.442,47.058,56.763,-12.024
-1.286,-0.805,0.407,41.321,59.998,-19.348
-1.251,-0.814,0.385,40.771,62.195,-24.414
-1.226,-0.838,0.373,45.776,64.331,-25.574
-1.194,-0.864,0.370,55.969,65.735,-23.743
-1.182,-0.887,0.373,67.078,66.833,-20.569
-1.174,-0.907,0.388,76.721,68.176,-16.541
-1.168,-0.934,0.401,84.290,70.374,-13.184
-1.144,-0.956,0.421,89.539,73.425,-11.536
-1.111,-0.967,0.459,90.942,77.881,-10.437
-1.119,-1.040,0.439,91.553,83.191,-12.939
-1.103,-1.078,0.476,86.243,89.172,-17.578
-1.048,-1.113,0.498,74.646,95.764,-17.639
-1.031,-1.143,0.477,64.453,105.042,-22.766
-0.994,-1.151,0.459,51.697,111.755,-27.588
-0.960,-1.156,0.427,38.330,116.760,-30.945
-0.912,-1.166,0.400,30.396,120.911,-33.569
-0.860,-1.190,0.380,27.100,122.498,-33.813
-0.837,-1.217,0.357,26.428,122.498,-30.762
-0.831,-1.242,0.331,27.344,122.559,-22.827
-0.835,-1.266,0.325,28.870,123.901,-14.221
-0.846,-1.312,0.351,33.508,125.305,-7.202
-0.863,-1.347,0.409,38.635,127.625,-1.160
-0.856,-1.368,0.458,37.964,134.583,4.150
-0.793,-1.366,0.456,30.029,145.447,5.798
-0.709,-1.355,0.424,15.930,153.015,1.526
-0.626,-1.349,0.369,0.122,154.968,-4.700
-0.558,-1.342,0.316,-14.465,153.259,-9.705
-0.481,-1.325,0.258,-24.780,151.001,-9.583
-0.389,-1.306,0.196,-29.541,149.292,-4.089
-0.313,-1.281,0.128,-30.212,145.935,5.432
-0.247,-1.244,0.067,-29.541,140.381,17.822
-0.195,-1.208,0.025,-27.527,132.690,29.297
-0.145,-1.172,0.014,-23.376,122.437,38.818
-0.114,-1.150,0.007,-20.203,110.901,46.204
-0.090,-1.127,0.040,-20.264,100.159,50.842
-0.075,-1.128,0.061,-20.996,90.881,52.307
-0.060,-1.138,0.074,-23.804,84.351,52.185
-0.014,-1.125,0.076,-31.738,80.017,52.185
0.051,-1.094,0.070,-42.603,77.209,52.185
0.118,-1.047,0.056,-54.810,75.684,53.711
0.184,-0.995,0.032,-66.589,73.486,56.580
0.245,-0.935,0.018,-76.660,69.336,60.303
0.281,-0.879,0.021,-84.412,63.538,64.880
0.292,-0.826,0.039,-87.402,57.373,71.289
0.318,-0.764,0.049,-87.646,54.016,79.712
0.337,-0.704,0.052,-86.304,50.415,86.975
0.344,-0.652,0.066,-84.167,43.518,90.881
0.333,-0.604,0.088,-81.665,35.767,92.896
0.338,-0.560,0.112,-78.247,29.053,93.689
0.345,-0.517,0.138,-75.317,22.339,92.834
0.348,-0.479,0.167,-73.181,15.137,90.210
0.352,-0.453,0.200,-70.862,8.118,85.876
0.346,-0.433,0.230,-70.923,2.258,81.177
0.342,-0.407,0.248,-72.083,-1.282,77.209
0.312,-0.375,0.257,-72.998,-1.587,75.317
0.316,-0.334,0.245,-72.083,-0.366,75.195
0.311,-0.288,0.229,-70.557,-2.686,74.829
0.293,-0.242,0.220,-66.650,-6.409,73.486
0.270,-0.211,0.219,-60.791,-8.484,74.036
0.260,-0.174,0.225,-52.368,-10.986,75.500
0.259,-0.137,0.230,-43.579,-17.151,76.904
0.242,-0.100,0.255,-36.682,-26.001,76.660
0.206,-0.083,0.285,-30.334,-34.607,77.271
0.177,-0.059,0.306,-23.987,-43.823,77.271
0.135,-0.048,0.323,-19.043,-54.199,75.562
0.089,-0.046,0.342,-16.479,-64.575,72.632
0.042,-0.052,0.363,-15.320,-75.012,68.970
0.006,-0.062,0.383,-15.137,-83.557,64.819
-0.030,-0.069,0.378,-16.113,-91.125,60.486
-0.072,-0.073,0.359,-18.066,-98.206,56.458
-0.112,-0.079,0.330,-19.104,-105.652,53.589
-0.149,-0.090,0.300,-18.494,-112.732,50.476
-0.203,-0.083,0.273,-15.686,-119.568,46.814
-0.264,-0.092,0.268,-10.864,-122.986,45.044
-0.307,-0.096,0.276,-5.920,-122.498,45.105
-0.341,-0.105,0.295,-1.831,-122.559,44.495
-0.392,-0.107,0.349,1.160,-123.535,42.969
-0.439,-0.106,0.410,3.784,-124.023,42.236
-0.481,-0.085,0.465,6.714,-125.061,42.786
-0.549,-0.069,0.505,10.437,-127.441,43.213
-0.598,-0.030,0.565,14.648,-129.211,44.312
-0.645,-0.005,0.583,17.517,-128.540,44.739
-0.711,-0.002,0.574,18.738,-127.930,43.579
-0.803,-0.001,0.566,20.508,-127.930,40.527
-0.875,-0.013,0.570,27.039,-125.854,37.231
-0.913,-0.045,0.557,35.217,-121.704,35.889
-0.936,-0.089,0.552,43.884,-118.286,34.851
-0.962,-0.136,0.549,52.185,-115.173,33.081
-0.971,-0.183,0.541,56.641,-112.122,30.640
-0.976,-0.216,0.553,58.044,-109.619,27.039
-0.965,-0.252,0.579,59.631,-106.140,23.010
-0.942,-0.277,0.609,59.204,-101.868,21.057
-0.968,-0.307,0.625,56.824,-97.046,21.118
-0.996,-0.326,0.631,55.237,-90.332,22.949
-1.024,-0.346,0.637,56.519,-81.665,26.611
-1.060,-0.377,0.637,59.937,-72.327,28.870
-1.088,-0.431,0.631,65.125,-66.162,27.832
-1.125,-0.468,0.669,70.618,-63.721,24.536
-1.163,-0.514,0.688,75.256,-57.678,21.301
-1.211,-0.555,0.690,79.041,-50.171,19.714
-1.157,-0.603,0.648,84.106,-42.175,17.090
-1.193,-0.655,0.669,91.003,-41.077,4.822
-1.261,-0.724,0.723,99.426,-39.612,-8.972

-1.295,-0.903,0.735,100.342,-28.137,-24.597
-1.261,-0.975,0.743,96.741,-19.287,-25.635
-1.253,-1.018,0.755,91.187,-10.620,-25.391
-1.237,-1.039,0.753,86.487,-0.549,-23.865
-1.208,-1.040,0.737,83.557,9.766,-22.461
-1.173,-1.027,0.702,79.956,19.897,-22.034
-1.117,-1.045,0.684,73.914,28.931,-23.376
-1.083,-1.036,0.643,67.932,34.424,-25.452
-1.067,-1.026,0.590,60.730,38.086,-26.489
-1.060,-1.008,0.529,55.420,41.321,-25.757
-1.043,-1.000,0.485,52.917,44.373,-24.719
-1.024,-0.995,0.455,54.016,47.302,-23.621
-1.004,-1.000,0.430,57.739,50.171,-22.705
-0.976,-1.010,0.419,63.171,53.162,-21.790
-0.965,-1.047,0.427,70.251,55.603,-21.240
-0.959,-1.108,0.458,80.872,59.509,-21.423
-0.939,-1.161,0.479,90.332,65.918,-20.996
-0.948,-1.239,0.519,95.459,72.144,-22.034
-0.935,-1.300,0.565,93.384,79.163,-25.208
-0.907,-1.414,0.554,85.205,85.999,-32.166
-0.896,-1.483,0.564,69.092,91.675,-42.664
-0.845,-1.548,0.557,49.438,96.191,-45.776
-0.812,-1.608,0.530,38.696,103.394,-48.157
-0.724,-1.654,0.516,31.311,108.948,-47.729
-0.649,-1.722,0.492,25.513,111.328,-46.875
-0.580,-1.796,0.477,22.217,110.840,-45.715
-0.505,-1.863,0.457,19.226,110.291,-42.175
-0.415,-1.912,0.421,12.939,110.352,-34.851
-0.324,-1.932,0.374,2.014,109.375,-25.696
-0.239,-1.925,0.310,-10.559,107.178,-16.296
-0.150,-1.885,0.237,-26.123,105.957,-5.615
-0.054,-1.807,0.163,-41.870,106.628,6.287
0.044,-1.706,0.087,-56.213,109.558,19.592
0.153,-1.586,0.022,-67.322,109.192,32.654
0.242,-1.463,-0.028,-75.989,103.760,44.922
0.308,-1.336,-0.063,-82.947,96.741,57.556
0.343,-1.196,-0.077,-88.684,89.172,70.801
0.366,-1.045,-0.079,-92.468,80.444,81.604
0.378,-0.912,-0.079,-95.459,70.313,86.914
0.389,-0.795,-0.058,-95.398,58.777,88.989
0.383,-0.684,-0.067,-92.651,47.485,89.233
0.378,-0.598,-0.054,-87.585,36.621,88.867
0.366,-0.528,-0.030,-79.163,26.062,87.952
0.334,-0.477,-0.010,-69.946,16.113,86.731
0.297,-0.424,0.013,-61.707,7.385,86.060
0.272,-0.374,0.033,-56.641,0.977,85.571
0.225,-0.331,0.054,-53.772,-4.395,84.167
0.186,-0.291,0.045,-52.490,-9.216,81.848
0.156,-0.232,0.036,-53.467,-15.564,78.247
0.123,-0.177,0.037,-54.077,-24.048,72.632
0.099,-0.135,0.044,-53.711,-32.410,66.772
0.067,-0.105,0.049,-52.551,-39.917,62.622
0.026,-0.079,0.060,-49.377,-47.485,59.692
-0.007,-0.052,0.085,-42.847,-54.871,57.983
-0.052,-0.041,0.115,-34.119,-61.890,57.068
-0.109,-0.035,0.147,-25.024,-68.420,56.396
-0.173,-0.025,0.176,-16.602,-74.036,54.993
-0.230,-0.018,0.199,-9.338,-79.102,51.392
-0.294,-0.025,0.223,-3.296,-84.167,46.082
-0.356,-0.057,0.249,2.197,-88.562,39.612
-0.420,-0.089,0.275,6.226,-92.896,33.203
-0.502,-0.118,0.298,10.193,-96.985,27.710
-0.586,-0.146,0.319,15.137,-98.450,24.170
-0.660,-0.170,0.336,20.081,-97.290,22.034
-0.722,-0.187,0.350,24.048,-95.337,18.555
-0.781,-0.210,0.367,25.879,-94.238,12.817
-0.860,-0.232,0.393,26.855,-92.651,6.409
-0.899,-0.255,0.405,29.053,-89.722,0.916
-0.944,-0.285,0.427,32.593,-86.548,-4.089
-0.972,-0.326,0.448,36.926,-83.435,-8.179
-0.947,-0.341,0.511,41.199,-80.322,-10.376
-1.034,-0.351,0.552,47.546,-77.576,-13.306
-1.063,-0.395,0.495,58.533,-78.125,-18.555
-1.086,-0.373,0.555,62.805,-74.341,-22.095
-1.136,-0.399,0.564,69.336,-70.801,-24.353
-1.163,-0.427,0.577,75.256,-63.904,-26.672
-1.213,-0.485,0.603,80.933,-57.190,-27.100
-1.242,-0.550,0.633,87.036,-49.805,-28.198
-1.239,-0.636,0.668,91.003,-41.321,-30.762
-1.254,-0.734,0.719,91.492,-33.325,-36.011
-1.259,-0.818,0.759,89.233,-24.048,-41.748
-1.234,-0.876,0.772,84.045,-12.268,-46.570
-1.211,-0.939,0.773,76.904,-0.916,-51.697
-1.201,-1.014,0.775,71.411,8.667,-56.274
-1.180,-1.094,0.772,68.420,18.005,-58.167
-1.154,-1.165,0.763,66.101,26.367,-57.190
-1.144,-1.239,0.770,65.125,32.349,-54.810
-1.151,-1.308,0.788,65.979,37.231,-51.758
-1.142,-1.367,0.814,67.322,42.664,-47.180
-1.146,-1.435,0.828,67.749,48.889,-43.518
-1.108,-1.485,0.846,65.674,55.237,-41.809
-1.132,-1.557,0.865,62.256,62.195,-44.983
-1.079,-1.625,0.867,51.025,69.214,-47.913
-1.021,-1.695,0.825,39.551,78.247,-52.185
-0.943,-1.741,0.766,26.550,87.219,-55.725
-0.852,-1.755,0.698,11.719,94.055,-55.054
-0.768,-1.731,0.611,-1.587,101.379,-50.415
-0.675,-1.673,0.508,-12.146,109.314,-42.053
-0.576,-1.605,0.417,-19.775,115.784,-32.166
-0.474,-1.544,0.354,-23.804,118.286,-23.743
-0.383,-1.496,0.293,-24.963,117.249,-17.517
-0.309,-1.461,0.240,-24.658,113.770,-12.146
-0.232,-1.422,0.199,-25.757,108.948,-5.981
-0.172,-1.381,0.177,-28.381,103.882,-0.183
-0.102,-1.346,0.164,-33.325,99.548,5.005
-0.053,-1.302,0.146,-40.100,94.360,9.705
-0.008,-1.250,0.117,-46.753,89.111,14.160
0.047,-1.201,0.074,-53.101,86.426,19.409
0.099,-1.151,0.028,-58.899,83.618,24.963
0.142,-1.098,-0.017,-62.866,77.942,30.334
0.170,-1.048,-0.053,-63.660,71.777,35.156
0.202,-0.999,-0.100,-63.599,66.650,40.833
0.234,-0.934,-0.149,-64.697,62.073,46.753
0.257,-0.865,-0.188,-65.735,54.504,50.964
0.260,-0.804,-0.215,-65.186,44.617,53.406
0.270,-0.754,-0.225,-63.416,33.691,54.810
0.259,-0.705,-0.219,-60.669,22.705,56.641
0.237,-0.650,-0.198,-57.861,12.512,60.059
0.197,-0.580,-0.174,-54.321,4.578,64.941

-1.016,-0.337,0.709,56.213,-89.661,7.812
-1.137,-0.340,0.785,62.134,-83.740,4.272
-1.210,-0.409,0.730,71.960,-78.491,-8.179
-1.175,-0.430,0.759,65.002,-69.519,-18.066
-1.214,-0.477,0.721,57.495,-58.105,-28.442
-1.204,-0.508,0.682,48.401,-47.913,-34.607
-1.188,-0.553,0.662,44.800,-40.405,-37.842
-1.158,-0.602,0.653,44.128,-35.583,-38.391
-1.162,-0.630,0.650,45.776,-32.471,-36.255
-1.168,-0.632,0.647,50.049,-28.564,-32.166
-1.168,-0.628,0.639,54.565,-23.499,-28.198
-1.180,-0.646,0.638,58.777,-19.653,-26.672
-1.215,-0.681,0.649,64.758,-17.639,-26.978
-1.261,-0.732,0.680,73.303,-15.503,-25.635
-1.305,-0.797,0.724,83.069,-10.986,-22.949
-1.346,-0.860,0.782,89.417,-3.418,-21.362
-1.372,-0.923,0.832,90.271,7.141,-23.437
-1.363,-0.981,0.857,85.449,20.447,-28.381
-1.336,-1.036,0.865,77.026,33.936,-35.889
-1.298,-1.093,0.857,67.810,47.241,-44.800
-1.249,-1.156,0.831,58.228,60.486,-53.162
-1.216,-1.211,0.774,47.668,71.960,-59.631
-1.210,-1.254,0.709,39.307,80.994,-63.538
-1.131,-1.293,0.645,34.546,87.952,-64.331
-1.104,-1.320,0.602,32.471,95.337,-65.369
-1.027,-1.344,0.557,28.809,101.624,-59.143
-0.960,-1.383,0.503,28.931,108.459,-52.795
-0.909,-1.407,0.466,26.672,113.342,-47.729
-0.841,-1.428,0.441,21.118,116.150,-42.725
-0.810,-1.472,0.398,13.550,119.263,-38.757
-0.750,-1.502,0.364,6.348,120.361,-35.034
-0.697,-1.526,0.325,0.061,120.667,-32.349
-0.647,-1.543,0.293,-6.592,120.605,-28.137
-0.602,-1.566,0.264,-12.024,120.361,-23.499
-0.563,-1.589,0.246,-16.052,119.446,-18.799
-0.491,-1.579,0.236,-19.958,119.019,-14.709
-0.422,-1.577,0.226,-25.024,117.737,-10.559
-0.347,-1.574,0.218,-32.349,115.662,-4.761
-0.286,-1.560,0.204,-40.283,113.342,1.648
-0.240,-1.517,0.191,-48.889,111.145,9.888
-0.189,-1.456,0.171,-56.580,109.253,18.372
-0.141,-1.385,0.149,-64.270,107.483,25.452
-0.081,-1.312,0.118,-70.862,104.248,31.311
-0.030,-1.238,0.088,-75.012,100.098,35.156
0.020,-1.164,0.058,-77.637,95.337,39.551
0.067,-1.082,0.036,-78.613,89.905,44.006
0.115,-1.005,0.019,-77.637,83.252,47.729
0.159,-0.934,0.007,-75.684,75.134,49.805
0.196,-0.874,-0.006,-72.998,66.406,50.964
0.200,-0.816,-0.016,-70.557,57.251,52.246
0.216,-0.755,-0.022,-67.261,48.950,54.871
0.219,-0.697,-0.032,-63.416,42.053,58.899
0.238,-0.642,-0.046,-61.584,34.607,62.866
0.254,-0.603,-0.061,-63.477,24.719,66.101
0.248,-0.564,-0.068,-68.115,12.878,69.031
0.238,-0.519,-0.066,-72.693,2.136,72.571
0.221,-0.466,-0.066,-76.294,-6.470,76.355
0.200,-0.405,-0.064,-79.346,-14.404,79.529
0.164,-0.338,-0.051,-81.543,-22.156,81.299
0.113,-0.274,-0.039,-82.642,-28.931,81.848
0.088,-0.195,-0.015,-82.825,-34.424,80.750
0.067,-0.135,-0.017,-81.726,-38.818,76.660
0.049,-0.085,-0.009,-78.979,-45.410,71.899
0.035,-0.050,-0.001,-74.646,-53.894,68.787
0.002,-0.027,0.013,-67.810,-61.584,66.833
-0.040,-0.010,0.044,-59.265,-69.458,67.200
-0.099,0.006,0.085,-50.110,-76.660,69.519
-0.149,0.021,0.127,-42.175,-82.581,71.960
-0.217,0.031,0.156,-35.645,-88.196,72.876
-0.288,0.052,0.177,-30.823,-92.651,72.632
-0.368,0.074,0.189,-25.269,-96.741,71.045
-0.440,0.097,0.201,-17.517,-100.769,67.444
-0.506,0.096,0.221,-8.423,-105.286,62.012
-0.578,0.055,0.247,1.282,-108.948,56.396
-0.669,0.000,0.286,10.925,-111.389,53.345
-0.750,-0.043,0.339,20.935,-111.694,52.063
-0.816,-0.076,0.394,30.334,-110.291,50.293
-0.869,-0.109,0.437,37.476,-108.887,47.363
-0.910,-0.141,0.469,40.344,-107.971,43.335
-0.952,-0.176,0.488,41.138,-107.422,38.391
-0.997,-0.209,0.511,41.077,-106.995,32.898
-1.068,-0.242,0.530,41.138,-106.201,27.954
-1.125,-0.277,0.553,41.016,-103.577,24.109
-1.165,-0.300,0.586,41.504,-99.365,19.653
-1.193,-0.316,0.619,42.175,-94.177,13.611
-1.205,-0.328,0.639,42.664,-88.745,7.935
-1.208,-0.343,0.651,43.396,-83.984,2.441
-1.218,-0.367,0.670,45.349,-80.444,-2.991
-1.168,-0.383,0.724,49.683,-78.125,-6.592
-1.243,-0.395,0.778,57.251,-76.538,-10.071
-1.319,-0.468,0.720,77.515,-76.904,-19.043
-1.292,-0.484,0.749,81.787,-72.754,-18.311
-1.332,-0.533,0.746,88.074,-65.430,-17.517
-1.339,-0.566,0.767,88.745,-55.908,-14.221
-1.339,-0.599,0.783,87.891,-46.021,-12.024
-1.350,-0.629,0.801,85.876,-36.255,-13.855
-1.341,-0.656,0.808,82.581,-25.391,-17.517
-1.328,-0.678,0.817,79.102,-12.146,-22.278
-1.318,-0.705,0.822,76.965,0.244,-27.405
-1.305,-0.738,0.824,76.538,10.620,-31.860
-1.304,-0.772,0.825,77.637,19.348,-34.851
-1.306,-0.821,0.831,80.444,26.733,-35.950
-1.315,-0.869,0.833,84.595,34.546,-35.400
-1.307,-0.913,0.833,88.135,43.823,-33.630
-1.290,-0.952,0.823,88.684,53.711,-32.959
-1.279,-0.987,0.798,87.036,64.270,-35.278
-1.289,-1.052,0.783,82.520,73.730,-39.856
-1.268,-1.117,0.759,77.820,82.947,-43.884
-1.250,-1.183,0.749,71.228,91.553,-48.035
-1.207,-1.253,0.733,64.758,101.074,-52.246
-1.126,-1.313,0.718,58.411,111.084,-54.260
-1.020,-1.366,0.695,51.147,119.080,-54.932
-0.948,-1.404,0.659,42.786,123.779,-53.955
-0.872,-1.450,0.598,35.461,127.808,-48.889
-0.798,-1.468,0.527,28.564,131.409,-40.710
-0.687,-1.469,0.453,17.151,133.850,-28.015
-0.616,-1.464,0.369,7.385,134.216,-16.968
-0.548,-1.441,0.306,1.587,132.507,-6.348
-0.481,-1.411,0.254,-0.793,132.080,3.296

-1.131,-0.370,0.593,66.895,-86.731,0.000
-1.133,-0.397,0.618,64.758,-83.008,-4.211
-1.146,-0.412,0.647,61.523,-78.247,-7.446
-1.085,-0.405,0.622,58.044,-71.899,-8.606
-1.179,-0.417,0.697,59.570,-65.735,-11.902
-1.223,-0.416,0.705,70.984,-57.556,-19.592
-1.239,-0.418,0.672,66.956,-47.302,-20.142
-1.247,-0.442,0.647,68.054,-38.330,-24.109
-1.229,-0.484,0.628,68.359,-32.532,-28.015
-1.232,-0.558,0.620,71.472,-30.334,-31.189
-1.254,-0.642,0.626,79.590,-29.358,-30.823
-1.276,-0.722,0.645,91.003,-27.039,-25.879
-1.299,-0.786,0.682,102.173,-22.400,-18.982
-1.348,-0.840,0.728,110.291,-16.174,-14.038
-1.371,-0.884,0.775,113.098,-7.385,-13.489
-1.384,-0.919,0.813,109.741,3.418,-18.860
-1.369,-0.965,0.840,101.135,15.137,-28.381
-1.365,-1.014,0.854,90.454,27.100,-38.818
-1.344,-1.073,0.858,82.153,40.955,-48.157
-1.302,-1.133,0.839,73.486,55.542,-55.481
-1.281,-1.177,0.811,64.575,67.017,-61.768
-1.266,-1.216,0.764,58.289,74.829,-66.589
-1.229,-1.229,0.731,55.481,82.153,-67.749
-1.189,-1.259,0.679,54.504,90.271,-68.237
-1.155,-1.300,0.641,54.443,96.924,-67.505
-1.101,-1.335,0.632,53.406,103.088,-65.308
-1.079,-1.406,0.590,53.833,109.558,-64.392
-0.998,-1.463,0.569,47.241,116.150,-62.012
-0.928,-1.522,0.534,36.926,122.742,-58.899
-0.861,-1.577,0.489,25.513,127.380,-57.922
-0.791,-1.600,0.444,14.771,131.409,-56.335
-0.709,-1.622,0.390,5.310,135.681,-54.199
-0.621,-1.652,0.326,-4.272,138.550,-50.659
-0.538,-1.668,0.281,-13.550,138.550,-45.776
-0.451,-1.671,0.261,-19.531,135.742,-39.063
-0.363,-1.663,0.242,-25.085,133.179,-28.442
-0.270,-1.637,0.225,-31.189,130.310,-15.320
-0.206,-1.603,0.206,-37.781,125.549,-2.502
-0.134,-1.563,0.201,-43.091,118.958,10.315
-0.086,-1.503,0.199,-47.241,111.938,22.034
-0.048,-1.441,0.189,-50.781,106.445,32.471
-0.011,-1.367,0.177,-55.359,101.624,41.382
0.033,-1.284,0.152,-60.242,96.741,47.791
0.073,-1.188,0.119,-65.308,91.675,51.575
0.096,-1.085,0.079,-70.190,86.121,54.626
0.118,-0.980,0.039,-74.646,80.872,57.556
0.143,-0.880,0.001,-78.796,76.233,59.631
0.169,-0.793,-0.049,-82.703,70.740,60.486
0.179,-0.724,-0.091,-86.182,63.721,60.974
0.190,-0.662,-0.118,-88.440,56.824,62.866
0.218,-0.606,-0.161,-90.515,50.659,66.223
0.235,-0.549,-0.199,-91.675,41.931,69.336
0.243,-0.490,-0.224,-91.797,30.457,72.571
0.236,-0.436,-0.239,-89.844,18.982,76.904
0.228,-0.381,-0.251,-85.999,7.690,82.520
0.210,-0.318,-0.247,-81.299,-4.700,88.745
0.188,-0.259,-0.245,-75.439,-15.503,95.093
0.149,-0.197,-0.235,-68.665,-26.794,101.440
0.086,-0.131,-0.201,-60.364,-38.879,106.934
0.020,-0.078,-0.171,-53.711,-49.561,111.206
-0.053,-0.020,-0.146,-51.147,-59.082,111.572
-0.112,0.043,-0.117,-50.781,-68.054,105.896
-0.169,0.100,-0.085,-50.171,-75.500,95.093
-0.238,0.143,-0.052,-47.363,-81.299,84.229
-0.291,0.171,-0.037,-43.152,-85.815,74.585
-0.313,0.204,-0.024,-38.513,-91.431,66.162
-0.361,0.208,-0.019,-35.461,-98.816,56.763
-0.440,0.201,-0.001,-30.334,-110.413,49.316
-0.525,0.195,0.026,-20.996,-121.582,45.654
-0.624,0.192,0.045,-9.216,-130.676,46.875
-0.741,0.175,0.084,4.150,-139.709,49.561
-0.890,0.138,0.158,20.264,-148.254,52.368
-1.042,0.101,0.267,38.818,-154.724,55.847
-1.173,0.067,0.385,57.678,-156.738,59.143
-1.267,0.049,0.494,71.655,-155.823,59.143
-1.358,0.015,0.582,78.979,-152.649,51.941
-1.422,-0.010,0.686,79.285,-147.644,38.574
-1.481,-0.042,0.782,76.599,-140.137,22.400
-1.500,-0.048,0.842,68.481,-129.517,6.775
-1.559,-0.057,0.854,57.678,-116.577,-7.996
-1.609,-0.090,0.876,51.086,-104.126,-22.095
-1.630,-0.127,0.914,51.025,-91.125,-34.851
-1.547,-0.146,0.929,53.955,-78.125,-43.701
-1.642,-0.133,1.040,62.683,-67.566,-54.626
-1.724,-0.211,0.987,90.576,-59.753,-73.425
-1.706,-0.253,1.004,94.421,-48.096,-81.238
-1.772,-0.361,0.973,100.830,-37.109,-85.815
-1.824,-0.485,0.958,106.873,-27.161,-86.121
-1.848,-0.610,0.969,114.563,-18.372,-83.313
-1.890,-0.755,0.994,124.207,-7.446,-79.895
-1.943,-0.899,1.024,129.822,6.653,-77.087
-1.974,-1.052,1.037,129.211,25.452,-78.430
-1.966,-1.188,1.041,119.324,45.898,-83.740
-1.951,-1.318,1.028,101.379,64.636,-91.309
-1.921,-1.447,1.000,82.458,81.604,-97.229
-1.846,-1.558,0.992,62.744,96.008,-98.450
-1.756,-1.620,1.009,47.058,107.788,-96.558
-1.648,-1.660,1.020,39.001,119.995,-91.919
-1.516,-1.709,0.997,34.058,134.644,-84.717
-1.371,-1.787,0.930,28.992,149.231,-76.843
-1.227,-1.866,0.852,21.912,160.278,-70.862
-1.065,-1.915,0.774,13.611,169.312,-64.758
-0.910,-1.959,0.661,4.028,178.406,-55.969
-0.710,-1.968,0.533,-6.042,185.364,-43.823
-0.497,-1.964,0.404,-16.052,189.514,-31.372
-0.284,-1.948,0.244,-26.855,190.674,-17.090
-0.104,-1.940,0.058,-35.950,189.087,0.671
0.092,-1.899,-0.122,-40.466,183.350,21.362
0.270,-1.845,-0.278,-42.603,174.622,41.687
0.416,-1.771,-0.412,-46.997,163.635,59.937
0.543,-1.672,-0.535,-55.054,152.161,73.730
0.658,-1.531,-0.652,-67.932,141.724,83.130
0.786,-1.356,-0.758,-81.543,131.104,90.576
0.878,-1.159,-0.859,-93.384,117.859,97.839
0.937,-0.923,-0.971,-101.501,101.013,107.483
0.972,-0.680,-1.052,-104.858,79.285,118.958
0.964,-0.449,-1.058,-101.074,52.551,130.432
0.899,-0.251,-1.024,-91.064,24.597,139.771
0.802,-0.077,-0.950,-77.942,-5.066,148.376

-1.511,0.746,0.103,33.569,-177.612,-0.305
-1.785,0.627,0.240,68.665,-185.059,-5.920
-2.017,0.471,0.426,100.586,-187.195,-12.268
-2.206,0.305,0.594,120.117,-178.833,-21.057
-2.378,0.138,0.723,125.793,-165.649,-35.400
-2.530,-0.045,0.843,122.437,-149.597,-54.321
-2.642,-0.229,0.972,118.225,-129.822,-71.472
-2.638,-0.420,1.048,112.732,-103.821,-82.458
-2.606,-0.624,1.095,103.821,-78.735,-90.759
-2.589,-0.789,1.133,95.032,-57.983,-96.130
-2.403,-0.915,1.133,91.187,-34.058,-94.543
-2.374,-0.969,1.325,94.604,-9.155,-93.262
-2.367,-1.149,1.242,122.498,10.742,-96.863
-2.237,-1.262,1.339,120.972,30.334,-96.436
-2.159,-1.465,1.365,120.483,49.622,-94.421
-2.027,-1.652,1.388,108.276,70.740,-89.355
-1.892,-1.824,1.369,88.928,89.355,-80.383
-1.708,-1.966,1.320,67.566,109.009,-73.547
-1.518,-2.061,1.270,40.710,126.648,-68.481
-1.302,-2.082,1.144,14.648,141.724,-66.101
-1.050,-2.057,0.997,-9.705,155.823,-66.101
-0.807,-2.031,0.810,-33.569,167.236,-65.674
-0.521,-1.984,0.622,-54.077,173.401,-61.401
-0.238,-1.941,0.440,-66.284,175.659,-53.406
0.043,-1.892,0.268,-70.984,174.683,-37.476
0.288,-1.833,0.145,-67.322,168.823,-12.695
0.427,-1.738,0.048,-58.350,161.133,18.860
0.516,-1.580,-0.024,-47.668,151.306,52.551
0.566,-1.368,-0.075,-43.457,138.794,79.651
0.597,-1.127,-0.146,-46.448,125.854,96.008
0.625,-0.931,-0.221,-53.833,113.586,101.440
0.652,-0.745,-0.268,-64.453,101.074,98.694
0.686,-0.571,-0.383,-76.477,87.402,91.614
0.706,-0.420,-0.501,-87.158,70.618,83.069
0.718,-0.303,-0.595,-92.407,52.185,76.721
0.714,-0.216,-0.664,-90.332,32.898,76.111
0.680,-0.150,-0.689,-82.703,11.963,81.177
0.604,-0.097,-0.679,-71.838,-8.850,89.172
0.515,-0.041,-0.659,-60.303,-27.771,97.900
0.397,0.027,-0.625,-50.598,-46.387,104.126
0.233,0.138,-0.577,-43.335,-63.660,107.239
0.083,0.262,-0.529,-38.025,-77.209,107.483
-0.059,0.385,-0.499,-36.865,-87.891,100.220
-0.198,0.505,-0.470,-39.856,-98.755,83.313
-0.352,0.603,-0.429,-41.870,-110.413,59.387
-0.525,0.662,-0.409,-39.307,-122.009,35.889
-0.734,0.649,-0.374,-30.945,-133.911,16.846
-0.972,0.585,-0.292,-13.000,-146.851,3.540
-1.214,0.496,-0.180,12.573,-157.898,-1.099
-1.438,0.377,-0.056,41.382,-168.091,0.488
-1.648,0.256,0.099,67.810,-176.025,2.441
-1.856,0.150,0.291,86.365,-178.772,1.526
-2.025,0.055,0.460,95.520,-174.194,-2.319
-2.165,-0.020,0.618,94.421,-165.649,-11.841
-2.347,-0.126,0.772,86.609,-155.396,-28.076
-2.485,-0.263,0.915,79.956,-140.381,-44.556
-2.553,-0.416,1.062,79.163,-123.047,-56.946
-2.570,-0.561,1.194,81.665,-105.225,-63.171
-2.563,-0.703,1.329,84.351,-86.243,-65.125
-2.497,-0.831,1.504,87.036,-63.843,-62.988
-2.436,-0.897,1.685,90.576,-37.720,-59.143
-2.394,-1.063,1.657,115.417,-13.611,-66.284
-2.350,-1.210,1.713,127.808,15.991,-73.975
-2.213,-1.326,1.753,106.506,41.016,-71.533
-2.123,-1.438,1.674,92.346,68.298,-69.397
-1.934,-1.453,1.600,64.270,97.290,-62.439
-1.717,-1.448,1.496,41.870,122.009,-57.800
-1.504,-1.463,1.376,20.630,142.151,-61.035
-1.302,-1.497,1.239,0.854,156.799,-68.481
-1.060,-1.544,1.078,-18.066,168.945,-75.378
-0.829,-1.594,0.926,-35.339,178.345,-80.261
-0.577,-1.626,0.765,-47.180,184.326,-80.750
-0.316,-1.637,0.594,-51.880,187.988,-74.158
-0.074,-1.639,0.391,-52.795,190.063,-59.570
0.163,-1.670,0.167,-48.889,187.683,-40.283
0.328,-1.701,-0.013,-42.053,179.077,-19.348
0.450,-1.682,-0.153,-35.034,166.321,4.578
0.548,-1.601,-0.242,-33.997,151.794,30.823
0.622,-1.472,-0.326,-40.466,136.658,54.749
0.663,-1.311,-0.416,-52.124,120.850,72.205
0.695,-1.144,-0.500,-64.209,105.713,83.496
0.736,-0.951,-0.599,-74.585,90.454,92.957
0.755,-0.759,-0.685,-82.764,72.632,100.891
0.744,-0.572,-0.761,-87.036,50.537,108.887
0.709,-0.389,-0.803,-87.036,26.855,117.920
0.631,-0.196,-0.801,-81.299,5.432,127.869
0.572,-0.028,-0.791,-70.557,-14.160,138.367
0.478,0.122,-0.744,-59.204,-37.781,145.508
0.304,0.247,-0.672,-46.509,-64.575,148.682
0.084,0.385,-0.579,-35.461,-87.280,149.353
-0.079,0.551,-0.499,-27.649,-102.356,142.517
-0.299,0.687,-0.441,-26.245,-112.244,122.986
-0.483,0.819,-0.369,-26.794,-121.826,95.459
-0.668,0.888,-0.290,-23.865,-130.859,63.721
-0.871,0.895,-0.205,-16.541,-140.259,34.241
-1.116,0.858,-0.093,-1.892,-149.780,11.292
-1.348,0.790,0.024,20.630,-156.372,-2.380
-1.553,0.691,0.137,45.044,-161.865,-9.705
-1.783,0.555,0.267,66.284,-168.335,-17.822
-2.036,0.414,0.450,83.374,-172.180,-26.611
-2.230,0.284,0.656,96.436,-165.466,-34.241
-2.393,0.149,0.841,102.356,-151.245,-43.335
-2.562,-0.014,1.007,100.891,-135.437,-55.786
-2.693,-0.172,1.156,95.337,-117.065,-69.092
-2.732,-0.331,1.278,88.135,-93.689,-80.688
-2.709,-0.488,1.356,80.566,-68.481,-90.576
-2.645,-0.634,1.403,74.585,-44.983,-96.130
-2.565,-0.768,1.435,74.585,-22.766,-95.825
-2.451,-0.897,1.423,81.482,-0.977,-89.539
-2.361,-0.985,1.597,98.389,17.822,-84.656
-2.373,-1.178,1.585,138.550,41.077,-86.609
-2.216,-1.368,1.530,133.606,67.932,-82.336
-2.065,-1.509,1.511,106.628,92.957,-77.637
-1.854,-1.596,1.407,72.693,117.432,-73.547
-1.613,-1.624,1.271,40.894,139.954,-72.815
-1.369,-1.641,1.123,14.709,156.921,-77.209
-1.152,-1.679,0.965,-10.315,167.847,-83.496
-0.885,-1.718,0.781,-30.396,173.645,-85.632
-0.612,-1.775,0.603,-42.664,175.049,-82.581

-0.091,-1.850,0.277,-45.410,164.429,-50.415
0.101,-1.836,0.118,-43.396,158.630,-19.165
0.249,-1.756,-0.022,-41.260,153.076,16.418
0.332,-1.627,-0.155,-40.710,145.081,48.279
0.387,-1.456,-0.264,-43.945,133.789,72.266
0.429,-1.271,-0.344,-52.124,121.765,85.083
0.486,-1.119,-0.401,-63.232,110.413,88.684
0.561,-0.978,-0.440,-76.050,98.877,87.097
0.630,-0.826,-0.514,-89.600,85.388,86.243
0.663,-0.663,-0.573,-100.708,70.923,89.172
0.673,-0.513,-0.606,-103.394,54.260,96.619
0.648,-0.396,-0.609,-100.342,34.058,107.422
0.535,-0.277,-0.548,-93.445,10.742,120.605
0.435,-0.155,-0.478,-83.862,-9.888,134.033
0.305,-0.010,-0.410,-76.904,-27.954,142.761
0.160,0.135,-0.347,-72.266,-43.091,144.470
0.017,0.293,-0.309,-70.190,-55.115,137.695
-0.066,0.454,-0.273,-68.176,-66.406,122.314
-0.174,0.539,-0.217,-64.697,-78.247,99.365
-0.292,0.581,-0.161,-58.533,-88.684,76.965
-0.400,0.589,-0.104,-49.255,-95.886,60.059
-0.530,0.601,-0.061,-38.208,-102.173,48.218
-0.673,0.605,-0.011,-24.597,-111.877,40.283
-0.845,0.587,0.051,-8.850,-124.084,34.424
-1.063,0.553,0.141,8.179,-135.803,31.128
-1.271,0.509,0.262,27.893,-142.273,31.006
-1.450,0.451,0.392,45.410,-142.029,31.311
-1.650,0.370,0.507,56.702,-140.747,26.794
-1.869,0.278,0.606,61.218,-139.099,17.334
-2.057,0.158,0.696,61.157,-133.301,4.822
-2.205,0.018,0.791,58.899,-123.352,-7.874
-2.318,-0.124,0.904,56.213,-111.633,-20.325
-2.416,-0.249,1.044,55.725,-99.731,-30.090
-2.502,-0.374,1.206,58.350,-86.609,-35.217
-2.565,-0.496,1.381,62.805,-70.862,-35.278
-2.594,-0.616,1.560,67.993,-51.208,-33.630
-2.589,-0.714,1.697,70.313,-27.832,-33.142
-2.524,-0.767,1.783,67.688,-2.747,-37.842
-2.422,-0.758,1.849,61.340,23.682,-48.523
-2.254,-0.755,1.874,67.017,51.086,-62.988
-2.089,-0.787,1.803,83.374,85.388,-80.566
-1.816,-0.834,1.659,59.265,112.976,-88.989
-1.567,-0.871,1.532,37.781,133.240,-96.680
-1.287,-0.903,1.378,23.010,146.790,-102.478
-1.023,-0.941,1.214,15.686,155.151,-108.643
-0.754,-1.004,1.041,11.719,161.438,-112.854
-0.487,-1.095,0.875,8.423,164.124,-113.586
-0.212,-1.220,0.718,6.958,162.842,-111.145
0.054,-1.322,0.552,7.080,159.668,-100.525
0.288,-1.393,0.380,8.606,155.518,-78.979
0.481,-1.408,0.189,9.827,149.353,-47.852
0.602,-1.366,0.013,10.315,139.954,-13.550
0.628,-1.299,-0.122,9.399,126.587,18.372
0.617,-1.225,-0.215,6.470,111.633,44.617
0.629,-1.193,-0.278,0.977,97.351,62.073
0.641,-1.169,-0.307,-8.240,82.764,71.045
0.612,-1.157,-0.340,-22.644,68.665,76.294
0.590,-1.099,-0.376,-39.551,56.030,83.618
0.568,-1.003,-0.434,-55.359,44.006,92.163
0.502,-0.851,-0.492,-68.359,29.114,101.013
0.426,-0.677,-0.506,-74.341,12.268,109.985
0.356,-0.513,-0.501,-73.608,-3.540,117.737
0.278,-0.368,-0.459,-70.068,-20.325,123.718
0.181,-0.212,-0.418,-63.416,-36.438,129.272
0.075,-0.060,-0.364,-52.795,-50.903,134.949
-0.040,0.076,-0.307,-41.687,-64.575,138.489
-0.139,0.183,-0.235,-30.945,-76.599,136.108
-0.264,0.279,-0.165,-24.170,-87.830,126.221
-0.388,0.389,-0.085,-19.226,-97.107,111.694
-0.513,0.461,-0.026,-16.174,-101.929,94.604
-0.618,0.541,0.020,-14.893,-106.750,76.477
-0.740,0.596,0.068,-11.963,-113.892,56.152
-0.890,0.612,0.150,-5.798,-123.108,38.818
-1.049,0.615,0.253,5.005,-131.165,26.794
-1.206,0.588,0.345,17.273,-136.169,17.761
-1.362,0.532,0.450,27.527,-141.296,8.423
-1.540,0.478,0.567,37.109,-146.301,-1.465
-1.751,0.425,0.698,47.913,-147.766,-8.057
-1.925,0.371,0.817,59.998,-142.395,-12.390
-2.088,0.292,0.913,68.176,-132.507,-21.545
-2.251,0.193,0.985,69.763,-122.864,-36.804
-2.372,0.068,1.050,70.984,-111.328,-53.345
-2.437,-0.098,1.104,77.515,-96.375,-65.979
-2.502,-0.284,1.154,86.914,-81.787,-71.960
-2.554,-0.471,1.245,98.877,-67.444,-72.876
-2.608,-0.657,1.342,111.328,-49.377,-71.533
-2.610,-0.821,1.494,119.446,-25.818,-70.801
-2.536,-1.038,1.518,138.611,-2.075,-79.651
-2.512,-1.245,1.566,156.982,33.264,-98.328
-2.295,-1.463,1.503,121.216,65.491,-108.154
-2.070,-1.616,1.407,74.646,94.482,-115.601
-1.818,-1.681,1.268,27.527,116.272,-117.859
-1.547,-1.665,1.135,-1.648,131.958,-112.732
-1.282,-1.635,0.983,-13.123,144.592,-101.868
-1.005,-1.615,0.819,-16.418,154.541,-84.839
-0.726,-1.629,0.660,-16.479,160.095,-63.049
-0.464,-1.641,0.525,-14.832,160.950,-39.490
-0.231,-1.608,0.385,-13.123,157.776,-14.587
-0.050,-1.539,0.239,-13.611,151.917,9.705
0.108,-1.436,0.100,-16.724,145.813,29.907
0.256,-1.296,-0.022,-22.827,141.602,43.823
0.413,-1.149,-0.113,-31.921,136.230,52.368
0.561,-0.992,-0.189,-41.687,127.075,57.556
0.685,-0.827,-0.245,-48.950,114.258,62.622
0.778,-0.646,-0.300,-52.063,98.938,70.007
0.831,-0.503,-0.341,-52.979,80.200,79.651
0.830,-0.370,-0.364,-50.354,56.946,89.783
0.764,-0.266,-0.365,-45.166,33.752,99.182
0.693,-0.177,-0.347,-41.382,12.817,106.812
0.602,-0.109,-0.320,-41.138,-4.578,109.497
0.488,-0.059,-0.292,-44.006,-21.301,108.093
0.376,-0.004,-0.265,-47.913,-34.790,105.042
0.267,0.073,-0.235,-51.758,-44.861,100.159
0.152,0.161,-0.218,-55.908,-52.185,92.285
0.058,0.252,-0.211,-59.875,-58.594,80.750
-0.050,0.339,-0.212,-61.218,-67.566,65.918
-0.177,0.426,-0.201,-55.969,-79.346,51.453
-0.328,0.495,-0.180,-43.396,-92.651,41.931
-0.506,0.532,-0.116,-25.208,-107.483,36.682

-1.511,0.411,0.333,50.476,-143.494,-5.127
-1.651,0.333,0.458,53.833,-137.329,-19.714
-1.779,0.246,0.572,52.856,-130.188,-34.729
-1.937,0.169,0.682,49.927,-125.366,-46.509
-2.098,0.085,0.779,51.941,-118.286,-49.805
-2.218,0.002,0.860,59.021,-107.361,-47.668
-2.314,-0.102,0.955,68.604,-96.924,-47.302
-2.362,-0.245,1.059,77.820,-86.304,-48.828
-2.394,-0.413,1.154,83.923,-72.876,-50.415
-2.379,-0.591,1.279,86.060,-55.969,-51.819
-2.367,-0.752,1.375,86.609,-36.621,-54.321
-2.329,-0.893,1.388,84.900,-14.526,-55.786
-2.256,-0.989,1.513,89.539,3.479,-62.561
-2.309,-1.168,1.516,114.807,29.419,-76.660
-2.163,-1.340,1.497,93.384,55.664,-77.271
-1.983,-1.452,1.414,66.101,81.848,-73.120
-1.778,-1.525,1.295,34.363,101.868,-69.763
-1.553,-1.554,1.192,12.634,116.760,-67.871
-1.313,-1.584,1.062,-1.465,129.944,-64.514
-1.045,-1.609,0.928,-11.597,141.357,-57.434
-0.786,-1.647,0.781,-19.104,150.757,-47.180
-0.501,-1.672,0.621,-25.635,156.616,-32.227
-0.241,-1.670,0.475,-32.654,158.936,-14.038
-0.038,-1.640,0.341,-40.222,160.217,6.775
0.126,-1.555,0.190,-47.058,161.865,29.724
0.275,-1.401,0.044,-53.589,161.682,52.307
0.399,-1.204,-0.107,-59.753,157.898,70.801
0.534,-1.018,-0.207,-64.941,148.315,81.055
0.627,-0.833,-0.271,-68.787,132.446,84.351
0.711,-0.668,-0.363,-74.341,114.746,86.487
0.756,-0.518,-0.446,-78.979,93.384,88.806
0.759,-0.387,-0.490,-80.627,69.031,91.370
0.734,-0.266,-0.500,-78.308,46.814,96.863
0.718,-0.177,-0.486,-73.730,25.757,105.103
0.642,-0.089,-0.464,-70.679,2.197,113.098
0.518,0.005,-0.428,-66.772,-21.179,119.568
0.363,0.082,-0.393,-61.584,-40.344,126.587
0.203,0.170,-0.361,-57.068,-56.519,131.531
0.016,0.277,-0.320,-53.650,-69.702,129.150
-0.173,0.384,-0.273,-50.903,-78.247,119.385
-0.322,0.502,-0.247,-47.668,-85.266,103.394
-0.467,0.610,-0.230,-43.335,-94.971,80.872
-0.622,0.657,-0.194,-36.377,-108.887,56.458
-0.799,0.653,-0.116,-23.560,-122.620,37.292
-0.960,0.615,-0.029,-3.357,-130.554,27.893
-1.139,0.556,0.047,17.700,-137.329,25.879
-1.340,0.494,0.158,38.391,-145.630,24.841
-1.528,0.425,0.268,56.152,-151.855,22.339
-1.699,0.336,0.387,69.763,-154.602,17.761
-1.846,0.267,0.502,77.393,-151.123,11.658
-1.939,0.203,0.557,79.407,-140.747,4.456
-2.016,0.140,0.598,76.904,-128.784,-5.432
-2.076,0.073,0.652,73.242,-117.126,-16.846
-2.087,-0.007,0.702,70.496,-103.516,-26.733
-2.094,-0.099,0.760,70.190,-89.844,-33.936
-2.091,-0.189,0.826,75.500,-78.125,-36.682
-2.084,-0.267,0.882,85.999,-68.298,-33.875
-2.102,-0.344,0.932,100.708,-60.120,-28.015
-2.166,-0.450,1.002,116.577,-50.964,-22.888
-2.145,-0.549,1.178,139.465,-39.917,-25.452
-2.250,-0.675,1.302,171.265,-14.404,-40.527
-2.178,-0.813,1.378,153.809,10.620,-51.575
-2.116,-0.981,1.367,133.911,36.926,-64.087
-2.006,-1.116,1.356,106.567,61.157,-72.510
-1.876,-1.213,1.333,78.796,80.078,-74.585
-1.750,-1.288,1.283,58.472,95.947,-76.233
-1.619,-1.328,1.188,46.875,109.497,-76.843
-1.510,-1.352,1.055,39.429,119.934,-75.989
-1.393,-1.362,0.949,29.846,128.357,-73.364
-1.245,-1.341,0.862,19.226,134.644,-69.946
-1.096,-1.316,0.808,12.756,138.916,-68.054
-0.972,-1.306,0.760,11.780,142.273,-64.392
-0.865,-1.296,0.709,15.442,146.606,-56.946
-0.756,-1.277,0.648,22.156,152.710,-48.340
-0.662,-1.262,0.576,28.870,157.104,-40.894
-0.556,-1.248,0.519,32.715,157.959,-34.912
-0.445,-1.254,0.474,32.227,157.776,-29.846
-0.323,-1.271,0.417,27.344,157.776,-24.841
-0.213,-1.307,0.314,18.372,157.349,-20.142
-0.117,-1.314,0.209,6.348,156.616,-12.817
-0.002,-1.300,0.100,-6.653,156.067,-2.319
0.085,-1.248,0.000,-21.912,153.442,9.277
0.153,-1.163,-0.085,-37.048,147.705,21.179
0.227,-1.062,-0.144,-50.171,140.503,31.372
0.295,-0.987,-0.178,-59.509,130.005,38.879
0.348,-0.934,-0.200,-65.552,116.516,46.448
0.364,-0.883,-0.202,-67.932,100.220,55.847
0.357,-0.817,-0.188,-68.237,86.731,68.237
0.347,-0.746,-0.197,-68.176,75.989,80.933
0.339,-0.693,-0.233,-69.763,64.758,89.661
0.311,-0.651,-0.237,-73.425,52.368,92.651
0.292,-0.602,-0.253,-78.430,43.274,92.102
0.290,-0.548,-0.285,-83.862,35.706,90.576
0.289,-0.492,-0.321,-88.623,26.978,88.806
0.280,-0.428,-0.345,-92.712,16.846,88.501
0.256,-0.363,-0.349,-93.628,5.920,91.919
0.206,-0.271,-0.329,-92.224,-6.592,98.816
0.111,-0.145,-0.297,-88.196,-20.020,107.117
0.032,-0.009,-0.273,-83.313,-32.715,113.525
-0.064,0.090,-0.216,-78.552,-47.180,114.563
-0.172,0.160,-0.150,-73.242,-60.303,110.352
-0.264,0.226,-0.078,-67.932,-71.472,104.309
-0.350,0.283,-0.025,-63.232,-80.261,96.619
-0.424,0.335,0.027,-58.167,-86.975,86.853
-0.482,0.389,0.049,-53.589,-91.431,74.890
-0.522,0.416,0.060,-49.377,-95.764,61.523
-0.574,0.415,0.071,-44.678,-102.356,47.974
-0.632,0.405,0.082,-39.673,-109.253,38.086
-0.730,0.399,0.083,-33.997,-115.112,32.654
-0.851,0.394,0.087,-27.405,-118.774,30.579
-0.984,0.379,0.090,-21.912,-120.056,29.846
-1.116,0.390,0.104,-17.456,-120.728,27.222
-1.240,0.422,0.158,-13.794,-120.728,19.531
-1.320,0.451,0.251,-9.094,-118.835,7.507
-1.367,0.456,0.349,-3.174,-117.615,-5.127
-1.389,0.433,0.447,1.770,-119.202,-17.456
-1.406,0.394,0.536,6.531,-122.498,-26.978
-1.425,0.350,0.605,11.353,-125.244,-31.372
-1.432,0.290,0.659,14.709,-127.258,-31.677

-1.617,0.234,0.810,21.057,-128.174,-26.672
-1.672,0.230,0.846,22.827,-119.080,-21.851
-1.697,0.181,0.854,23.254,-110.962,-23.682
-1.725,0.124,0.851,22.522,-106.140,-29.297
-1.724,0.079,0.854,24.475,-102.173,-31.128
-1.782,0.070,0.922,28.076,-97.534,-28.625
-1.791,-0.003,0.840,48.096,-95.764,-27.405
-1.834,-0.005,0.910,69.275,-86.243,-27.893
-1.835,-0.052,0.914,80.627,-76.294,-23.926
-1.829,-0.097,0.957,85.571,-65.247,-22.827
-1.805,-0.143,1.025,84.839,-56.396,-22.888
-1.787,-0.194,1.095,83.313,-47.363,-23.376
-1.782,-0.214,1.159,85.327,-36.072,-23.682
-1.805,-0.210,1.210,88.440,-22.583,-22.644
-1.839,-0.194,1.248,91.553,-5.737,-22.339
-1.812,-0.165,1.250,92.285,14.404,-25.818
-1.787,-0.161,1.231,91.736,32.654,-36.316
-1.737,-0.202,1.209,92.834,47.363,-50.659
-1.660,-0.268,1.176,97.595,61.768,-61.157
-1.562,-0.350,1.134,104.004,73.608,-66.406
-1.487,-0.419,1.104,109.314,80.811,-68.542
-1.429,-0.511,1.064,112.915,85.144,-68.909
-1.377,-0.608,1.015,113.464,88.257,-67.688
-1.357,-0.689,0.973,112.061,89.417,-64.941
-1.375,-0.786,0.958,111.633,92.590,-61.218
-1.414,-0.872,0.966,115.906,102.966,-58.899
-1.376,-0.983,0.973,121.826,120.422,-57.617
-1.319,-1.100,0.952,119.751,135.986,-58.777
-1.256,-1.229,0.938,111.633,143.677,-64.697
-1.202,-1.357,0.927,103.577,148.376,-69.885
-1.144,-1.488,0.888,94.849,156.433,-68.054
-1.041,-1.587,0.836,85.388,166.443,-59.387
-0.906,-1.653,0.756,73.730,173.645,-48.706
-0.812,-1.679,0.668,57.922,176.758,-38.330
-0.720,-1.664,0.573,46.082,177.368,-25.330
-0.622,-1.615,0.445,39.856,178.589,-10.498
-0.517,-1.536,0.329,25.940,177.002,3.967
-0.435,-1.450,0.246,5.432,171.143,17.822
-0.369,-1.367,0.183,-6.592,166.077,31.433
-0.273,-1.302,0.100,-10.010,166.504,47.974
-0.177,-1.212,0.015,-13.977,166.504,66.223
-0.086,-1.109,-0.066,-19.836,161.865,81.665
-0.004,-1.014,-0.164,-28.320,153.748,93.689
0.074,-0.926,-0.256,-38.269,142.151,102.295
0.145,-0.858,-0.346,-46.387,128.296,107.361
0.203,-0.803,-0.419,-52.429,112.732,111.755
0.256,-0.766,-0.475,-57.434,96.252,117.554
0.279,-0.734,-0.501,-61.829,80.261,125.671
0.283,-0.685,-0.513,-62.683,64.636,137.024
0.273,-0.591,-0.509,-61.096,49.805,150.269
0.262,-0.485,-0.486,-56.763,35.339,160.889
0.272,-0.398,-0.450,-51.270,20.569,167.419
0.289,-0.334,-0.385,-46.936,4.944,169.861
0.278,-0.276,-0.321,-43.884,-10.132,169.983
0.264,-0.212,-0.269,-41.321,-24.292,169.922
0.248,-0.157,-0.215,-40.955,-35.889,168.396
0.242,-0.134,-0.165,-42.847,-46.753,163.025
0.221,-0.119,-0.121,-48.645,-57.312,155.090
0.187,-0.078,-0.077,-56.580,-66.040,148.376
0.148,-0.002,-0.079,-64.087,-71.472,144.836
0.098,0.108,-0.095,-68.237,-77.393,141.785
0.027,0.199,-0.091,-64.697,-86.731,135.864
-0.065,0.289,-0.040,-53.162,-98.938,130.798
-0.128,0.359,0.018,-37.903,-108.826,128.845
-0.208,0.376,0.057,-22.400,-114.990,126.526
-0.277,0.363,0.102,-6.287,-122.742,121.216
-0.357,0.321,0.149,10.254,-132.812,114.197
-0.410,0.270,0.172,25.757,-139.282,110.718
-0.467,0.233,0.185,39.795,-142.578,111.206
-0.535,0.175,0.190,53.284,-141.296,114.929
-0.668,0.117,0.151,65.796,-135.010,122.131
-0.797,0.112,0.104,77.942,-128.662,131.897
-0.950,0.147,0.134,88.623,-127.197,134.338
-1.216,0.165,0.281,94.604,-126.343,121.521
-1.329,0.172,0.356,87.952,-112.610,95.398
-1.356,0.132,0.370,64.697,-95.154,51.392
-1.395,0.016,0.320,32.654,-88.623,-3.967
-1.363,-0.103,0.270,5.188,-90.576,-50.110
-1.317,-0.215,0.213,-2.014,-95.520,-75.134
-1.283,-0.300,0.173,9.705,-103.638,-75.623
-1.312,-0.372,0.152,34.302,-117.554,-60.120
-1.403,-0.405,0.236,64.575,-135.315,-39.795
-1.609,-0.419,0.365,91.309,-148.926,-21.973
-1.733,-0.518,0.372,124.268,-158.752,-13.428
-1.853,-0.555,0.486,149.536,-159.912,-15.869
-1.887,-0.643,0.546,162.354,-157.471,-21.667
