aX,aY,aZ,gX,gY,gZ
0.572,-0.549,0.894,-1.892,-30.396,42.908
0.545,-0.570,0.854,-1.038,-32.410,47.852
0.486,-0.545,0.813,1.587,-35.767,57.678
0.490,-0.526,0.798,6.165,-41.504,73.608
0.462,-0.442,0.820,13.062,-45.349,78.003
0.384,-0.459,0.834,16.357,-47.424,70.313
0.401,-0.498,0.904,15.137,-52.185,69.641
0.396,-0.538,0.955,18.066,-56.152,66.956
0.379,-0.586,0.982,11.475,-57.556,63.721
0.370,-0.655,0.975,-3.357,-61.157,61.707
0.346,-0.719,0.959,-19.043,-67.871,62.012
0.294,-0.757,0.943,-33.447,-73.364,65.918
0.230,-0.759,0.923,-43.945,-74.951,74.707
0.143,-0.763,0.920,-46.387,-72.693,86.426
0.074,-0.762,0.905,-42.603,-67.871,98.694
0.017,-0.738,0.903,-37.231,-63.354,111.145
-0.053,-0.691,0.885,-35.522,-59.753,122.375
-0.111,-0.610,0.845,-37.231,-55.603,131.775
-0.180,-0.538,0.783,-38.879,-52.185,137.634
-0.254,-0.477,0.728,-39.551,-50.781,140.015
-0.328,-0.402,0.698,-36.011,-52.063,140.686
-0.393,-0.333,0.705,-27.283,-53.467,139.343
-0.471,-0.280,0.729,-19.653,-52.734,136.047
-0.539,-0.247,0.754,-17.395,-52.368,132.385
-0.574,-0.191,0.759,-13.245,-48.767,125.427
-0.599,-0.176,0.729,-15.503,-42.480,119.324
-0.640,-0.199,0.732,-16.479,-41.931,106.445
-0.644,-0.219,0.767,-20.569,-46.204,93.384
-0.647,-0.250,0.810,-23.193,-50.171,80.200
-0.662,-0.276,0.854,-24.048,-51.941,67.871
-0.657,-0.296,0.895,-24.414,-50.842,59.326
-0.649,-0.302,0.916,-23.560,-45.288,54.382
-0.645,-0.313,0.922,-20.630,-34.058,50.232
-0.635,-0.325,0.899,-18.494,-21.973,48.523
-0.626,-0.341,0.888,-15.320,-15.930,50.110
-0.609,-0.328,0.885,-11.169,-14.832,53.406
-0.599,-0.302,0.889,-6.287,-15.137,56.824
-0.610,-0.276,0.906,-4.395,-14.709,59.204
-0.661,-0.240,0.913,-3.479,-12.146,59.509
-0.663,-0.189,0.910,-3.113,-6.531,56.763
-0.621,-0.145,0.893,-3.906,-2.319,52.124
-0.595,-0.126,0.885,-7.874,-2.563,46.082
-0.599,-0.126,0.884,-13.489,-4.456,40.588
-0.590,-0.133,0.902,-16.052,-4.456,34.546
-0.566,-0.162,0.918,-15.869,-1.831,27.832
-0.554,-0.213,0.869,-15.015,2.258,22.705
-0.512,-0.224,0.875,-20.386,4.822,19.775
-0.518,-0.233,0.884,-21.423,7.080,18.799
-0.509,-0.237,0.864,-14.343,11.902,18.372
-0.470,-0.221,0.855,-6.409,16.724,19.226
-0.448,-0.211,0.859,0.122,16.907,20.569
-0.457,-0.202,0.871,3.662,13.184,21.790
-0.473,-0.191,0.880,4.272,9.644,21.301
-0.474,-0.182,0.880,4.028,7.141,18.188
-0.483,-0.181,0.870,1.404,3.418,14.282
-0.500,-0.170,0.867,-2.502,-2.441,10.559
-0.524,-0.157,0.891,-4.456,-8.057,6.042
-0.535,-0.162,0.915,-4.395,-9.949,1.709
-0.543,-0.168,0.922,-2.686,-8.545,-1.648
-0.543,-0.175,0.921,0.244,-5.310,-4.761
-0.528,-0.191,0.913,1.648,-1.221,-7.263
-0.518,-0.212,0.898,1.831,1.648,-8.484
-0.510,-0.222,0.893,1.282,3.113,-9.033
-0.520,-0.222,0.901,0.244,4.639,-9.216
-0.526,-0.224,0.902,0.916,7.874,-8.179
-0.528,-0.218,0.901,3.479,11.292,-6.470
-0.537,-0.198,0.904,6.042,12.817,-5.371
-0.535,-0.172,0.906,7.874,13.367,-5.981
-0.523,-0.153,0.911,8.850,13.123,-9.155
-0.508,-0.155,0.924,8.362,12.085,-14.282
-0.488,-0.178,0.938,5.432,10.986,-20.508
-0.462,-0.207,0.951,2.686,10.559,-26.245
-0.448,-0.237,0.969,1.282,10.132,-29.846
-0.442,-0.269,0.978,0.122,10.803,-30.457
-0.445,-0.286,0.964,-0.427,13.733,-30.029
-0.433,-0.298,0.934,-0.732,18.433,-29.236
-0.430,-0.310,0.912,-2.625,21.912,-28.015
-0.440,-0.302,0.890,-4.272,23.926,-25.635
-0.458,-0.291,0.873,-3.540,26.428,-23.010
-0.467,-0.258,0.865,0.305,28.870,-20.447
-0.487,-0.212,0.887,6.592,29.968,-19.348
-0.490,-0.195,0.924,12.085,31.372,-21.851
-0.482,-0.192,0.963,15.442,33.020,-27.161
-0.459,-0.199,0.989,15.198,32.776,-33.508
-0.438,-0.220,0.995,10.986,31.433,-40.344
-0.412,-0.252,0.985,4.150,31.677,-46.631
-0.386,-0.275,0.965,-1.648,32.898,-51.636
-0.363,-0.297,0.936,-2.991,34.058,-54.321
-0.334,-0.304,0.932,-2.747,34.668,-54.565
-0.318,-0.297,0.944,-1.953,34.302,-53.162
-0.318,-0.288,0.955,-0.549,34.485,-51.086
-0.319,-0.275,0.959,1.099,36.987,-49.438
-0.322,-0.267,0.948,3.113,40.405,-49.500
-0.286,-0.259,0.908,3.662,43.274,-51.270
-0.255,-0.257,0.882,2.319,43.396,-54.321
-0.247,-0.265,0.877,0.916,40.466,-58.105
-0.218,-0.260,0.880,0.916,38.574,-62.866
-0.192,-0.275,0.906,0.671,38.391,-67.932
-0.193,-0.310,0.898,0.854,39.490,-71.838
-0.164,-0.336,0.875,1.038,40.649,-72.998
-0.126,-0.350,0.879,1.465,38.330,-71.716
-0.125,-0.362,0.890,0.977,35.095,-69.214
-0.110,-0.355,0.885,-0.061,35.950,-66.895
-0.088,-0.338,0.859,0.732,38.269,-65.063
-0.080,-0.330,0.856,1.648,37.781,-65.308
-0.099,-0.324,0.880,2.930,34.607,-67.322
-0.092,-0.334,0.900,3.601,34.424,-70.679
-0.088,-0.358,0.902,2.563,35.339,-74.036
-0.078,-0.385,0.883,0.977,34.180,-77.087
-0.040,-0.408,0.847,1.160,31.860,-79.224
-0.009,-0.444,0.846,2.991,27.832,-79.895
0.003,-0.483,0.856,5.432,24.109,-78.674
0.026,-0.509,0.863,7.263,23.560,-76.050
0.041,-0.518,0.880,8.545,23.071,-71.960
0.019,-0.511,0.906,9.521,22.949,-67.383
0.012,-0.497,0.901,10.864,26.672,-64.148
0.036,-0.486,0.871,10.376,32.532,-62.012
0.029,-0.470,0.866,8.667,33.569,-60.608
0.030,-0.456,0.873,7.996,32.288,-60.303

-0.814,-0.207,1.022,0.793,15.686,-45.410
-0.816,-0.242,1.017,2.441,22.705,-47.852
-0.797,-0.261,1.003,4.639,28.381,-49.500
-0.768,-0.276,0.993,5.737,32.898,-51.208
-0.760,-0.291,0.998,4.944,37.354,-53.406
-0.754,-0.295,1.006,3.174,41.931,-57.922
-0.721,-0.295,0.980,-0.305,46.143,-64.392
-0.691,-0.294,0.951,-5.981,46.021,-71.533
-0.656,-0.314,0.930,-10.864,42.419,-79.041
-0.610,-0.333,0.914,-12.573,38.696,-84.656
-0.556,-0.354,0.915,-11.353,37.109,-88.989
-0.521,-0.385,0.942,-8.118,38.879,-91.919
-0.489,-0.415,0.968,-4.211,45.471,-93.628
-0.443,-0.435,0.953,-0.610,54.138,-94.238
-0.410,-0.444,0.917,0.732,60.852,-93.140
-0.393,-0.441,0.872,-0.610,64.575,-91.309
-0.361,-0.416,0.827,-2.747,66.528,-91.003
-0.343,-0.403,0.808,-2.258,67.627,-93.323
-0.317,-0.387,0.774,1.160,69.214,-95.459
-0.297,-0.391,0.756,4.883,68.237,-97.778
-0.295,-0.397,0.773,8.057,62.317,-101.807
-0.281,-0.406,0.799,11.902,56.091,-106.628
-0.264,-0.446,0.815,14.465,53.223,-111.267
-0.241,-0.481,0.814,14.465,52.490,-114.258
-0.218,-0.501,0.817,14.160,52.307,-116.150
-0.192,-0.514,0.798,12.634,53.284,-117.493
-0.142,-0.516,0.764,10.010,54.749,-118.530
-0.102,-0.532,0.745,7.202,54.260,-119.873
-0.062,-0.551,0.753,5.859,51.941,-121.765
-0.003,-0.584,0.771,7.690,51.208,-124.451
0.045,-0.638,0.792,11.719,52.063,-126.221
0.094,-0.704,0.805,16.174,53.955,-125.793
0.136,-0.778,0.797,18.616,56.641,-123.718
0.196,-0.829,0.769,17.212,58.533,-120.911
0.256,-0.850,0.710,14.221,59.448,-118.286
0.325,-0.858,0.641,8.484,58.960,-114.502
0.365,-0.854,0.589,3.784,56.030,-108.521
0.374,-0.849,0.582,6.226,51.636,-101.318
0.381,-0.813,0.614,13.916,48.096,-92.590
0.388,-0.765,0.658,21.362,47.180,-82.886
0.364,-0.726,0.717,26.184,46.448,-74.524
0.350,-0.685,0.771,29.602,45.410,-68.604
0.367,-0.628,0.805,31.982,45.532,-64.636
0.420,-0.576,0.821,31.006,45.654,-62.134
0.445,-0.549,0.838,25.391,42.908,-62.561
0.477,-0.548,0.839,16.724,38.269,-65.247
0.505,-0.586,0.834,8.118,33.508,-67.749
0.515,-0.629,0.840,3.784,28.809,-68.787
0.543,-0.665,0.847,2.258,25.452,-67.749
0.575,-0.698,0.850,2.258,22.949,-64.941
0.598,-0.726,0.855,2.625,20.386,-59.631
0.629,-0.730,0.853,3.540,17.639,-53.040
0.660,-0.725,0.841,4.578,15.991,-46.021
0.674,-0.712,0.827,3.662,14.343,-38.818
0.666,-0.681,0.818,2.319,11.780,-31.311
0.666,-0.666,0.808,1.221,9.277,-25.391
0.650,-0.671,0.803,1.709,7.080,-21.912
0.639,-0.688,0.801,2.686,4.089,-18.860
0.616,-0.706,0.818,2.625,1.099,-14.099
0.600,-0.710,0.822,-0.610,-0.793,-7.874
0.589,-0.711,0.810,-5.737,-2.136,-0.366
0.573,-0.701,0.784,-10.315,-3.113,8.362
0.540,-0.678,0.752,-13.855,-3.296,17.639
0.501,-0.644,0.722,-15.869,-2.075,26.367
0.469,-0.606,0.695,-15.320,-1.282,34.119
0.424,-0.561,0.678,-14.587,-2.869,40.833
0.379,-0.526,0.674,-13.672,-4.272,45.044
0.360,-0.488,0.660,-11.169,-5.981,47.424
0.343,-0.469,0.664,-6.714,-11.353,47.974
0.308,-0.468,0.702,-3.418,-18.311,47.668
0.289,-0.475,0.765,0.061,-23.560,48.096
0.289,-0.489,0.854,3.662,-25.513,49.377
0.276,-0.494,0.932,5.188,-26.184,51.819
0.292,-0.499,0.972,4.150,-25.879,54.199
0.298,-0.515,0.986,0.183,-25.085,55.542
0.302,-0.530,0.983,-5.310,-23.743,56.274
0.337,-0.547,0.952,-9.705,-21.179,57.068
0.376,-0.565,0.899,-12.817,-21.790,57.983
0.397,-0.578,0.852,-15.381,-26.062,60.181
0.403,-0.583,0.818,-15.686,-30.823,64.331
0.407,-0.599,0.787,-13.855,-33.997,68.665
0.394,-0.607,0.775,-11.169,-36.987,73.730
0.357,-0.601,0.783,-8.850,-40.405,79.346
0.322,-0.591,0.814,-6.226,-42.114,83.435
0.283,-0.595,0.842,-4.761,-43.396,85.205
0.243,-0.609,0.864,-6.653,-44.739,84.900
0.207,-0.636,0.864,-10.864,-45.593,83.801
0.188,-0.655,0.845,-18.066,-46.448,82.947
0.174,-0.668,0.830,-24.048,-48.462,83.191
0.138,-0.687,0.828,-26.733,-51.758,85.083
0.099,-0.685,0.825,-26.794,-51.880,89.050
0.071,-0.656,0.821,-22.034,-48.096,93.384
0.040,-0.633,0.822,-15.320,-43.640,97.595
-0.001,-0.601,0.823,-9.888,-40.222,100.403
-0.026,-0.560,0.805,-5.676,-38.147,101.013
-0.042,-0.528,0.782,-4.456,-39.063,100.281
-0.057,-0.500,0.757,-8.179,-41.626,97.961
-0.081,-0.488,0.721,-14.465,-43.823,94.727
-0.111,-0.467,0.700,-18.372,-45.959,92.651
-0.126,-0.450,0.691,-17.639,-46.814,92.041
-0.170,-0.439,0.711,-14.221,-47.607,92.712
-0.224,-0.406,0.763,-12.390,-49.255,94.421
-0.296,-0.421,0.778,-7.568,-52.612,94.971
-0.313,-0.399,0.818,-5.554,-50.781,93.750
-0.344,-0.396,0.822,-5.554,-47.607,91.248
-0.365,-0.390,0.821,-8.545,-45.959,87.219
-0.395,-0.390,0.823,-14.404,-44.067,82.642
-0.410,-0.390,0.827,-18.555,-42.664,77.515
-0.436,-0.374,0.845,-20.020,-42.664,74.158
-0.452,-0.358,0.863,-17.212,-40.710,71.472
-0.468,-0.351,0.868,-13.428,-36.987,69.824
-0.492,-0.325,0.873,-11.719,-35.339,68.848
-0.510,-0.290,0.863,-10.315,-34.424,67.505
-0.512,-0.276,0.860,-9.644,-32.898,64.819
-0.531,-0.273,0.876,-9.705,-33.936,61.584
-0.547,-0.265,0.912,-8.362,-34.302,57.373
-0.517,-0.273,0.921,-5.249,-29.724,52.429
-0.483,-0.299,0.910,-4.578,-25.452,48.767
-0.468,-0.324,0.894,-6.836,-24.719,45.776

0.629,-0.890,0.695,28.442,53.284,-81.482
0.693,-0.901,0.719,25.024,51.208,-78.857
0.762,-0.906,0.723,20.813,46.875,-76.355
0.849,-0.917,0.714,14.343,41.321,-74.951
0.922,-0.936,0.692,8.362,34.973,-73.120
0.976,-0.967,0.678,5.859,28.503,-69.397
1.008,-0.998,0.684,6.226,22.583,-63.171
1.042,-1.016,0.689,8.789,17.700,-54.688
1.071,-1.053,0.699,10.864,13.000,-45.654
1.089,-1.106,0.708,10.925,6.775,-37.048
1.103,-1.168,0.718,9.460,1.282,-29.785
1.123,-1.241,0.709,5.127,-2.380,-22.461
1.154,-1.301,0.650,-2.808,-4.395,-12.939
1.183,-1.327,0.583,-13.123,-7.202,-0.854
1.190,-1.336,0.514,-19.958,-10.559,13.733
1.151,-1.327,0.454,-23.132,-13.245,30.457
1.082,-1.282,0.420,-24.475,-16.724,47.791
1.000,-1.216,0.418,-23.071,-23.010,64.087
0.922,-1.142,0.433,-20.386,-32.104,78.674
0.836,-1.066,0.473,-18.188,-41.382,91.309
0.738,-0.987,0.534,-15.930,-50.781,102.173
0.622,-0.906,0.608,-13.977,-60.242,110.596
0.504,-0.844,0.684,-12.756,-66.284,115.234
0.384,-0.796,0.766,-13.733,-69.275,116.394
0.298,-0.761,0.820,-17.334,-71.716,114.868
0.226,-0.758,0.848,-23.010,-74.097,112.061
0.152,-0.780,0.868,-29.175,-76.050,110.229
0.097,-0.780,0.887,-31.494,-76.111,111.145
0.061,-0.779,0.884,-29.968,-74.768,113.525
0.016,-0.778,0.881,-28.198,-74.951,116.211
-0.031,-0.754,0.889,-28.259,-74.768,118.164
-0.072,-0.744,0.875,-29.236,-72.510,119.141
-0.115,-0.729,0.849,-31.311,-71.533,119.812
-0.142,-0.703,0.825,-33.264,-71.350,120.056
-0.175,-0.687,0.801,-34.546,-70.496,118.713
-0.213,-0.688,0.777,-34.851,-68.909,116.577
-0.233,-0.669,0.733,-34.485,-64.819,114.624
-0.232,-0.648,0.707,-33.630,-63.110,112.183
-0.239,-0.648,0.703,-33.203,-65.063,109.741
-0.243,-0.655,0.711,-33.752,-66.650,108.215
-0.258,-0.635,0.712,-34.912,-65.674,108.643
-0.276,-0.597,0.693,-34.729,-61.401,110.779
-0.303,-0.533,0.664,-33.386,-55.542,114.014
-0.328,-0.454,0.643,-28.625,-50.598,116.821
-0.340,-0.364,0.631,-21.423,-46.753,117.371
-0.350,-0.300,0.650,-15.076,-44.373,114.136
-0.375,-0.276,0.667,-12.939,-44.006,106.995
-0.417,-0.280,0.671,-15.503,-44.922,96.863
-0.417,-0.308,0.658,-20.325,-44.556,86.304
-0.408,-0.363,0.648,-23.743,-44.067,77.148
-0.393,-0.422,0.659,-27.588,-46.509,73.303
-0.401,-0.470,0.687,-29.846,-48.523,75.378
-0.420,-0.500,0.716,-28.076,-46.082,80.811
-0.439,-0.510,0.740,-24.475,-39.551,86.975
-0.513,-0.500,0.755,-23.743,-32.715,92.407
-0.592,-0.472,0.776,-25.208,-25.757,96.497
-0.659,-0.444,0.776,-25.024,-20.142,96.619
-0.678,-0.402,0.732,-24.109,-17.395,93.445
-0.683,-0.358,0.724,-23.376,-19.348,88.074
-0.715,-0.345,0.722,-19.043,-24.475,81.787
-0.702,-0.314,0.757,-9.399,-26.489,76.660
-0.690,-0.282,0.773,-0.610,-24.780,72.205
-0.704,-0.249,0.802,3.052,-24.475,69.702
-0.744,-0.197,0.841,6.714,-25.208,67.139
-0.760,-0.173,0.866,12.512,-23.376,63.293
-0.757,-0.170,0.854,14.404,-23.926,58.655
-0.781,-0.189,0.853,10.254,-29.602,53.223
-0.791,-0.175,0.904,0.427,-35.583,47.974
-0.786,-0.181,0.932,-4.333,-36.194,42.969
-0.771,-0.202,0.941,-3.296,-31.982,37.415
-0.769,-0.210,0.951,-2.258,-27.222,33.997
-0.776,-0.190,0.949,-0.427,-22.095,31.799
-0.776,-0.165,0.943,2.258,-16.602,29.846
-0.770,-0.151,0.946,2.930,-14.648,26.855
-0.763,-0.136,0.968,2.625,-16.418,22.583
-0.768,-0.127,1.004,2.136,-17.944,18.494
-0.758,-0.117,1.021,1.770,-16.357,14.771
-0.754,-0.104,1.021,0.977,-13.977,11.658
-0.763,-0.093,1.031,0.366,-13.489,8.850
-0.768,-0.087,1.046,1.465,-13.550,5.676
-0.748,-0.082,1.049,4.211,-11.108,2.014
-0.703,-0.096,1.050,5.798,-6.958,-1.587
-0.656,-0.122,1.067,5.188,-4.700,-5.249
-0.618,-0.156,1.077,3.723,-3.357,-9.277
-0.571,-0.206,1.063,0.183,0.366,-13.611
-0.510,-0.258,1.022,-4.211,3.723,-17.334
-0.452,-0.308,0.997,-8.240,4.456,-20.142
-0.417,-0.358,0.973,-11.292,5.554,-21.484
-0.390,-0.384,0.942,-11.292,9.949,-20.630
-0.353,-0.393,0.904,-6.897,15.381,-17.700
-0.362,-0.393,0.870,-3.113,18.188,-14.587
-0.379,-0.363,0.844,0.793,19.775,-12.451
-0.380,-0.336,0.814,5.188,21.362,-11.780
-0.401,-0.314,0.811,6.592,20.081,-12.146
-0.453,-0.288,0.823,6.226,17.883,-12.756
-0.496,-0.273,0.815,4.944,18.188,-14.343
-0.528,-0.246,0.801,2.625,19.104,-17.151
-0.564,-0.228,0.804,-0.061,18.188,-20.386
-0.609,-0.206,0.789,-2.197,18.005,-22.949
-0.647,-0.158,0.783,-2.014,19.043,-24.475
-0.677,-0.102,0.790,0.427,20.325,-25.879
-0.715,-0.074,0.822,5.310,21.484,-29.175
-0.774,-0.068,0.876,11.292,22.522,-34.363
-0.808,-0.074,0.937,16.907,24.536,-40.649
-0.818,-0.083,0.989,20.203,28.198,-47.913
-0.839,-0.101,1.025,20.020,32.166,-55.542
-0.839,-0.120,1.021,16.602,35.828,-62.500
-0.821,-0.130,1.012,10.620,38.086,-70.068
-0.798,-0.162,0.999,4.944,39.063,-77.820
-0.772,-0.205,0.973,0.000,39.612,-84.839
-0.744,-0.238,0.933,-1.648,41.138,-90.210
-0.694,-0.274,0.883,-0.732,43.823,-93.811
-0.658,-0.308,0.845,0.305,44.250,-95.520
-0.634,-0.351,0.842,3.296,42.786,-96.130
-0.608,-0.399,0.843,11.597,45.959,-96.863
-0.556,-0.445,0.836,22.095,54.199,-96.924
-0.530,-0.464,0.833,29.175,61.890,-96.313
-0.485,-0.469,0.810,29.724,66.772,-96.252
-0.453,-0.491,0.784,24.353,68.176,-98.877

0.468,-1.070,0.533,20.691,67.200,-90.393
0.538,-1.040,0.500,24.109,68.665,-78.003
0.582,-0.989,0.507,28.137,65.613,-63.965
0.613,-0.907,0.541,30.884,59.753,-50.781
0.636,-0.848,0.588,32.410,53.650,-40.833
0.634,-0.837,0.636,31.982,46.997,-34.607
0.634,-0.851,0.693,30.151,40.161,-33.081
0.633,-0.884,0.760,26.367,33.875,-34.912
0.674,-0.933,0.777,19.531,29.541,-37.720
0.727,-0.987,0.774,8.301,25.818,-40.344
0.777,-1.037,0.755,-2.136,22.400,-40.161
0.810,-1.073,0.737,-7.751,18.921,-35.217
0.823,-1.092,0.711,-7.019,16.174,-26.001
0.814,-1.078,0.699,-2.991,14.526,-13.489
0.776,-1.053,0.691,1.282,11.658,-1.160
0.725,-1.039,0.694,2.991,8.667,8.972
0.676,-1.026,0.695,2.747,4.883,16.235
0.646,-1.004,0.694,1.526,0.732,21.851
0.645,-0.990,0.679,-1.709,-3.052,25.146
0.649,-0.990,0.673,-6.287,-9.399,26.428
0.643,-0.999,0.682,-11.780,-17.761,28.259
0.628,-1.001,0.698,-17.883,-24.231,31.494
0.617,-1.001,0.693,-23.682,-27.710,36.377
0.590,-0.994,0.702,-27.649,-31.433,43.762
0.549,-0.982,0.716,-27.222,-35.828,53.223
0.531,-0.979,0.735,-23.682,-37.415,62.500
0.506,-0.988,0.769,-19.348,-38.879,70.435
0.477,-0.998,0.795,-16.052,-41.565,76.843
0.480,-1.006,0.799,-16.663,-42.725,80.566
0.489,-1.018,0.784,-21.973,-44.739,82.520
0.502,-1.031,0.768,-29.297,-48.523,84.412
0.521,-1.033,0.743,-36.255,-52.246,86.914
0.549,-1.033,0.719,-40.527,-56.946,89.600
0.575,-1.050,0.716,-42.664,-61.462,92.712
0.604,-1.078,0.703,-41.687,-63.660,97.534
0.635,-1.121,0.676,-37.170,-64.270,104.065
0.639,-1.169,0.644,-33.386,-65.430,111.450
0.621,-1.203,0.580,-30.701,-65.918,120.483
0.543,-1.221,0.526,-30.273,-65.796,130.737
0.414,-1.214,0.446,-34.729,-65.918,140.442
0.276,-1.186,0.337,-42.358,-67.566,148.193
0.112,-1.124,0.235,-50.049,-72.388,154.236
-0.060,-1.041,0.155,-53.772,-79.407,160.034
-0.232,-0.945,0.115,-51.270,-86.792,164.612
-0.419,-0.834,0.151,-43.762,-94.727,168.579
-0.603,-0.709,0.227,-32.715,-100.708,171.021
-0.771,-0.576,0.323,-20.142,-103.210,170.227
-0.898,-0.500,0.456,-8.362,-107.422,165.222
-0.965,-0.403,0.588,0.793,-106.873,153.870
-0.994,-0.376,0.673,-3.052,-101.257,140.320
-0.993,-0.360,0.770,-12.268,-99.854,124.207
-0.988,-0.365,0.833,-28.625,-97.778,111.816
-0.997,-0.383,0.828,-40.161,-90.698,101.257
-0.995,-0.373,0.793,-47.119,-82.520,95.154
-1.005,-0.345,0.762,-50.659,-76.965,92.896
-1.028,-0.311,0.723,-48.096,-71.167,91.858
-1.013,-0.270,0.696,-39.917,-64.148,90.942
-1.027,-0.231,0.701,-27.954,-59.204,88.196
-1.041,-0.183,0.745,-22.217,-56.152,85.938
-1.064,-0.147,0.781,-21.301,-52.795,81.299
-1.072,-0.126,0.824,-24.597,-50.415,74.524
-1.069,-0.112,0.868,-29.053,-50.110,68.237
-1.062,-0.108,0.887,-31.982,-48.340,63.599
-1.063,-0.101,0.884,-33.264,-43.518,60.608
-1.059,-0.078,0.866,-33.997,-37.354,58.960
-1.077,-0.041,0.828,-33.081,-31.555,57.922
-1.091,0.004,0.799,-29.846,-25.696,55.725
-1.108,0.042,0.778,-24.475,-20.264,52.734
-1.135,0.071,0.764,-16.724,-15.808,49.683
-1.158,0.102,0.757,-5.737,-12.634,45.776
-1.175,0.140,0.786,6.287,-12.268,41.321
-1.195,0.154,0.865,18.555,-14.160,35.461
-1.196,0.150,0.956,27.466,-13.794,28.381
-1.187,0.114,0.988,30.762,-10.803,20.386
-1.185,0.135,1.069,23.682,-7.996,12.024
-1.216,0.137,1.083,17.029,-4.089,6.897
-1.241,0.147,1.087,17.822,1.282,-0.549
-1.228,0.156,1.097,16.724,7.935,-6.287
-1.248,0.169,1.125,14.526,12.085,-14.160
-1.225,0.181,1.123,13.000,17.334,-22.644
-1.215,0.161,1.100,11.597,23.926,-31.921
-1.200,0.117,1.063,10.315,28.320,-41.748
-1.153,0.061,1.036,10.193,30.640,-51.514
-1.131,-0.006,1.006,10.498,32.715,-60.059
-1.094,-0.074,0.979,9.094,36.072,-66.467
-1.077,-0.142,0.947,8.850,39.917,-71.716
-1.063,-0.207,0.909,7.996,44.067,-77.026
-1.046,-0.251,0.877,8.423,49.377,-81.299
-1.009,-0.290,0.840,11.108,54.443,-85.327
-0.984,-0.323,0.824,13.184,56.702,-89.539
-0.948,-0.362,0.819,15.808,57.861,-93.262
-0.926,-0.404,0.829,19.287,60.059,-95.581
-0.892,-0.443,0.829,24.597,65.491,-96.252
-0.848,-0.472,0.814,30.029,72.754,-95.581
-0.793,-0.485,0.787,31.677,78.491,-95.154
-0.765,-0.510,0.768,29.968,81.482,-95.947
-0.722,-0.533,0.752,26.611,83.557,-98.267
-0.684,-0.555,0.752,22.095,85.022,-101.563
-0.649,-0.580,0.723,15.564,87.646,-105.286
-0.602,-0.604,0.666,7.019,91.064,-108.948
-0.546,-0.625,0.592,1.343,93.323,-111.145
-0.506,-0.661,0.532,1.770,94.177,-111.389
-0.471,-0.674,0.486,9.033,93.262,-109.619
-0.411,-0.667,0.480,19.897,91.553,-107.544
-0.371,-0.673,0.511,29.968,90.088,-107.178
-0.348,-0.706,0.559,36.133,91.614,-109.436
-0.311,-0.755,0.593,40.100,94.543,-113.037
-0.268,-0.817,0.623,42.175,96.497,-117.249
-0.223,-0.889,0.646,40.833,97.717,-120.911
-0.199,-0.950,0.656,35.889,98.267,-122.742
-0.096,-0.957,0.634,29.541,99.731,-122.742
-0.029,-0.983,0.584,25.940,98.389,-123.596
0.077,-0.971,0.558,22.400,94.604,-121.765
0.193,-0.983,0.517,22.644,95.032,-116.455
0.293,-1.021,0.492,31.189,93.994,-114.319
0.380,-1.058,0.486,34.546,89.722,-108.704
0.445,-1.083,0.472,33.020,86.853,-102.783
0.498,-1.103,0.424,28.870,85.693,-97.290
0.546,-1.100,0.387,23.437,80.994,-92.896

0.696,-1.111,0.388,17.273,64.514,-85.754
0.767,-1.091,0.414,19.836,55.786,-79.407
0.845,-1.069,0.433,22.644,51.025,-70.496
0.893,-1.073,0.471,23.621,45.471,-62.012
0.927,-1.083,0.529,22.156,37.048,-55.542
0.987,-1.112,0.580,19.287,30.457,-51.636
1.065,-1.164,0.619,13.672,24.780,-49.133
1.121,-1.217,0.639,5.981,18.982,-44.556
1.176,-1.242,0.639,-0.427,16.724,-36.316
1.223,-1.224,0.613,-3.906,15.076,-24.414
1.239,-1.190,0.586,-7.446,11.108,-11.292
1.222,-1.160,0.562,-10.742,5.371,0.488
1.207,-1.128,0.558,-11.475,-0.427,11.230
1.180,-1.114,0.553,-10.498,-5.859,21.484
1.132,-1.109,0.537,-9.705,-11.536,30.090
1.076,-1.100,0.511,-11.475,-19.958,37.537
1.008,-1.076,0.490,-16.846,-28.992,43.152
0.945,-1.066,0.465,-24.597,-38.879,47.729
0.864,-1.063,0.495,-31.738,-51.453,52.612
0.780,-1.056,0.547,-33.813,-61.768,59.265
0.689,-1.038,0.591,-32.471,-66.650,68.359
0.594,-1.008,0.618,-30.151,-68.481,78.674
0.493,-0.971,0.646,-28.320,-70.984,88.745
0.399,-0.931,0.670,-27.283,-74.646,96.741
0.315,-0.900,0.698,-27.832,-78.674,102.478
0.238,-0.875,0.724,-29.480,-81.848,105.469
0.169,-0.862,0.741,-32.593,-83.130,107.178
0.089,-0.828,0.740,-37.598,-82.947,108.459
0.031,-0.785,0.720,-40.771,-81.299,109.131
-0.023,-0.756,0.718,-42.542,-80.994,108.948
-0.078,-0.742,0.721,-41.870,-81.482,108.459
-0.116,-0.727,0.736,-37.842,-80.933,109.314
-0.152,-0.731,0.752,-32.166,-79.712,110.413
-0.183,-0.732,0.751,-28.442,-76.660,112.427
-0.217,-0.715,0.743,-26.306,-73.975,115.356
-0.254,-0.700,0.742,-25.146,-72.937,117.798
-0.287,-0.693,0.739,-26.123,-72.083,118.408
-0.315,-0.695,0.727,-29.297,-70.374,118.103
-0.336,-0.691,0.706,-33.813,-67.993,118.347
-0.422,-0.695,0.641,-38.208,-65.613,118.896
-0.431,-0.667,0.653,-42.786,-64.148,122.498
-0.462,-0.627,0.627,-33.752,-57.129,124.146
-0.459,-0.599,0.588,-30.273,-45.410,129.333
-0.508,-0.543,0.589,-21.179,-42.114,134.216
-0.559,-0.474,0.602,-16.418,-39.490,139.282
-0.630,-0.394,0.655,-11.414,-38.208,139.832
-0.703,-0.326,0.711,-10.742,-38.391,135.010
-0.763,-0.290,0.732,-15.015,-38.940,124.634
-0.795,-0.278,0.723,-23.193,-40.955,110.474
-0.808,-0.290,0.693,-32.166,-44.067,94.727
-0.809,-0.307,0.684,-38.696,-49.255,82.092
-0.802,-0.327,0.703,-39.917,-54.443,74.402
-0.789,-0.338,0.731,-35.034,-55.298,70.984
-0.805,-0.327,0.760,-26.123,-52.246,71.167
-0.828,-0.296,0.792,-16.724,-48.828,72.144
-0.849,-0.256,0.830,-12.512,-46.509,73.120
-0.879,-0.223,0.872,-12.024,-44.739,71.472
-0.908,-0.191,0.905,-12.634,-41.626,68.237
-0.921,-0.162,0.930,-13.000,-37.292,63.843
-0.926,-0.138,0.945,-13.123,-33.691,58.228
-0.924,-0.122,0.954,-14.465,-30.579,52.979
-0.927,-0.104,0.966,-14.587,-26.672,48.157
-0.917,-0.088,0.981,-11.230,-21.973,44.434
-0.906,-0.072,0.988,-5.798,-16.846,41.565
-0.909,-0.055,1.014,0.244,-12.146,39.856
-0.923,-0.032,1.034,7.446,-7.141,38.086
-0.923,-0.035,1.003,15.320,-1.770,34.058
-0.905,0.009,1.057,15.259,1.282,28.992
-0.904,0.039,1.072,13.245,2.014,24.414
-0.895,0.041,1.048,12.512,3.479,15.381
-0.878,0.042,1.037,7.080,4.944,6.287
-0.854,0.040,1.021,0.671,5.615,-2.441
-0.849,0.032,1.018,-5.493,5.554,-11.047
-0.832,0.012,1.005,-8.362,7.141,-18.860
-0.815,-0.015,0.992,-8.362,10.010,-25.208
-0.799,-0.040,0.976,-6.836,12.512,-29.480
-0.789,-0.081,0.956,-4.517,14.404,-32.593
-0.774,-0.122,0.947,-2.747,15.564,-35.583
-0.763,-0.159,0.947,-1.587,15.991,-38.879
-0.749,-0.198,0.940,-0.854,19.165,-43.091
-0.731,-0.228,0.912,0.488,24.658,-47.058
-0.716,-0.252,0.891,1.770,29.358,-50.354
-0.708,-0.261,0.890,3.235,32.410,-53.223
-0.706,-0.267,0.903,6.042,34.973,-55.603
-0.702,-0.270,0.911,9.583,38.940,-57.556
-0.692,-0.275,0.919,12.085,42.847,-59.753
-0.693,-0.280,0.928,13.123,45.471,-62.073
-0.677,-0.288,0.928,14.221,47.119,-64.819
-0.657,-0.312,0.936,14.404,47.974,-68.359
-0.631,-0.337,0.944,13.428,48.889,-72.327
-0.593,-0.372,0.935,9.888,51.208,-76.477
-0.557,-0.409,0.902,4.089,53.833,-80.078
-0.523,-0.434,0.857,-1.526,56.274,-82.397
-0.491,-0.445,0.804,-5.859,58.960,-83.374
-0.453,-0.429,0.754,-7.629,60.486,-83.252
-0.427,-0.415,0.717,-5.554,60.120,-83.679
-0.410,-0.417,0.683,-0.366,60.730,-86.121
-0.383,-0.423,0.668,5.615,60.852,-89.355
-0.374,-0.446,0.684,11.108,57.861,-92.773
-0.367,-0.492,0.708,16.724,55.542,-96.558
-0.355,-0.542,0.747,21.301,55.847,-99.426
-0.344,-0.576,0.783,26.001,57.434,-100.098
-0.320,-0.607,0.797,29.663,60.669,-99.426
-0.302,-0.617,0.802,29.297,63.721,-98.450
-0.265,-0.614,0.788,27.466,65.918,-98.389
-0.233,-0.630,0.759,24.292,67.322,-98.999
-0.191,-0.642,0.741,21.606,66.406,-99.304
-0.165,-0.650,0.735,18.982,63.721,-98.877
-0.148,-0.664,0.718,17.822,62.195,-98.206
-0.138,-0.681,0.695,18.677,62.073,-96.924
-0.124,-0.692,0.681,20.752,60.486,-95.520
-0.112,-0.725,0.675,23.071,57.312,-94.543
-0.077,-0.764,0.665,22.339,54.260,-94.299
-0.029,-0.781,0.681,20.996,50.903,-93.933
0.011,-0.792,0.711,21.423,48.828,-93.140
0.054,-0.830,0.732,23.193,50.842,-93.445
0.120,-0.844,0.730,20.630,55.725,-91.064
0.178,-0.853,0.729,19.043,59.204,-87.646
0.240,-0.862,0.731,18.799,61.218,-84.961

0.530,-0.977,0.617,12.329,57.617,-72.449
0.601,-1.006,0.597,10.071,52.917,-67.444
0.648,-1.013,0.596,10.498,49.377,-59.021
0.699,-0.978,0.592,11.963,48.035,-48.340
0.709,-0.917,0.588,12.207,45.959,-37.170
0.687,-0.843,0.596,11.169,41.809,-27.344
0.674,-0.769,0.599,10.620,37.231,-19.592
0.657,-0.696,0.615,10.254,31.555,-13.916
0.635,-0.643,0.653,10.620,24.597,-10.681
0.613,-0.617,0.692,10.864,18.127,-9.399
0.610,-0.625,0.732,9.094,12.268,-10.803
0.617,-0.656,0.760,4.517,6.653,-14.221
0.643,-0.712,0.762,-0.916,1.892,-17.578
0.675,-0.786,0.746,-6.653,-1.953,-18.433
0.698,-0.847,0.722,-10.864,-5.737,-15.625
0.730,-0.894,0.707,-13.855,-9.033,-9.644
0.728,-0.935,0.667,-13.550,-12.207,-1.953
0.713,-0.951,0.649,-13.123,-14.343,7.446
0.706,-0.946,0.645,-10.986,-15.442,17.456
0.696,-0.945,0.642,-9.155,-16.602,26.672
0.676,-0.949,0.638,-9.094,-20.569,34.546
0.654,-0.954,0.639,-9.521,-25.513,41.565
0.632,-0.954,0.649,-9.460,-28.503,47.668
0.600,-0.945,0.670,-10.132,-31.128,53.894
0.561,-0.919,0.684,-11.536,-34.241,60.974
0.532,-0.887,0.698,-12.634,-36.011,67.566
0.502,-0.871,0.706,-13.245,-36.011,73.547
0.467,-0.855,0.709,-11.292,-35.217,80.017
0.433,-0.841,0.724,-6.409,-35.828,86.792
0.406,-0.838,0.751,-2.319,-37.720,92.102
0.380,-0.838,0.773,0.610,-40.405,95.764
0.357,-0.844,0.801,1.282,-42.847,98.328
0.305,-0.849,0.817,-0.122,-44.373,99.854
0.267,-0.846,0.820,-4.761,-45.044,101.624
0.230,-0.841,0.785,-9.766,-44.739,102.295
0.191,-0.832,0.732,-16.052,-44.617,102.478
0.147,-0.811,0.676,-21.606,-45.837,102.844
0.106,-0.791,0.638,-23.376,-48.462,103.943
0.073,-0.771,0.594,-23.254,-51.636,104.980
0.023,-0.781,0.576,-22.339,-56.091,106.506
-0.062,-0.803,0.580,-21.423,-59.204,108.521
-0.143,-0.802,0.591,-16.602,-60.242,112.000
-0.212,-0.779,0.626,-12.390,-60.425,115.173
-0.285,-0.741,0.676,-11.169,-59.326,116.333
-0.327,-0.724,0.677,-10.986,-57.190,115.479
-0.364,-0.659,0.746,-15.930,-55.420,114.502
-0.418,-0.615,0.718,-14.526,-55.786,113.037
-0.434,-0.560,0.704,-20.752,-51.941,113.464
-0.479,-0.521,0.706,-21.179,-50.842,112.610
-0.531,-0.474,0.726,-23.926,-51.270,112.488
-0.597,-0.416,0.744,-23.743,-52.368,111.206
-0.660,-0.358,0.766,-20.325,-53.772,107.910
-0.703,-0.296,0.775,-14.343,-56.030,102.356
-0.715,-0.234,0.785,-10.925,-59.265,94.727
-0.720,-0.202,0.799,-11.292,-63.965,85.083
-0.716,-0.204,0.826,-15.015,-69.519,75.073
-0.716,-0.223,0.870,-20.386,-74.341,66.895
-0.720,-0.241,0.916,-24.048,-75.317,61.707
-0.704,-0.251,0.933,-24.536,-71.167,59.692
-0.714,-0.262,0.925,-22.644,-64.941,59.448
-0.744,-0.246,0.922,-21.118,-57.922,60.120
-0.758,-0.222,0.913,-19.226,-50.354,59.875
-0.761,-0.208,0.911,-15.991,-44.250,57.434
-0.758,-0.209,0.917,-15.381,-39.246,54.321
-0.756,-0.202,0.919,-14.282,-34.302,51.392
-0.733,-0.194,0.908,-10.864,-29.297,48.889
-0.724,-0.184,0.896,-8.667,-25.391,46.692
-0.720,-0.164,0.884,-8.240,-22.278,45.044
-0.729,-0.142,0.877,-7.507,-19.409,42.725
-0.745,-0.140,0.872,-6.897,-16.846,40.100
-0.768,-0.118,0.872,-5.676,-14.465,37.231
-0.776,-0.103,0.876,-3.784,-13.062,34.119
-0.801,-0.105,0.854,-1.404,-11.597,30.762
-0.825,-0.066,0.904,-2.319,-9.399,26.367
-0.855,-0.039,0.926,0.977,-6.470,23.132
-0.860,-0.027,0.919,8.972,-1.953,16.418
-0.844,-0.019,0.913,11.597,0.549,9.399
-0.859,-0.016,0.943,8.362,-1.953,2.625
-0.876,-0.024,0.985,4.761,-4.456,-4.761
-0.859,-0.056,1.001,2.686,-3.235,-12.085
-0.862,-0.078,1.011,0.305,-2.625,-17.395
-0.875,-0.093,1.022,-0.793,-2.258,-21.179
-0.872,-0.117,1.024,-0.854,-0.244,-25.269
-0.882,-0.128,1.015,-1.160,2.747,-29.541
-0.889,-0.144,1.005,0.244,6.348,-33.691
-0.892,-0.165,1.001,2.563,11.108,-38.452
-0.876,-0.183,1.001,5.493,16.541,-43.030
-0.852,-0.212,0.983,9.338,22.949,-46.509
-0.824,-0.238,0.962,12.756,27.893,-48.157
-0.803,-0.258,0.948,15.503,31.311,-49.194
-0.790,-0.272,0.933,16.785,35.217,-50.842
-0.774,-0.295,0.902,15.625,39.246,-53.894
-0.754,-0.319,0.864,12.085,40.955,-58.533
-0.724,-0.342,0.828,7.385,40.039,-64.636
-0.697,-0.376,0.804,4.578,40.955,-70.801
-0.657,-0.409,0.790,6.592,44.800,-75.745
-0.607,-0.428,0.794,10.742,49.072,-78.491
-0.571,-0.441,0.793,14.160,54.077,-79.895
-0.526,-0.451,0.784,18.250,57.678,-79.956
-0.489,-0.456,0.792,22.400,58.777,-80.017
-0.470,-0.459,0.803,25.146,59.570,-80.322
-0.455,-0.466,0.800,27.283,62.073,-81.665
-0.441,-0.486,0.794,27.649,63.782,-84.717
-0.421,-0.512,0.766,24.841,63.354,-88.867
-0.369,-0.535,0.738,20.691,60.730,-92.834
-0.346,-0.566,0.718,17.944,56.763,-96.497
-0.296,-0.590,0.699,18.555,56.458,-98.877
-0.247,-0.622,0.676,22.339,60.181,-100.281
-0.209,-0.669,0.659,26.917,63.721,-101.013
-0.200,-0.710,0.643,30.945,67.200,-101.196
-0.161,-0.738,0.619,34.912,71.960,-101.746
-0.119,-0.779,0.607,36.621,73.242,-102.539
-0.096,-0.821,0.620,35.034,69.641,-102.966
-0.066,-0.853,0.635,32.471,67.810,-102.295
-0.022,-0.848,0.653,30.823,69.275,-99.915
0.024,-0.831,0.671,30.701,72.388,-95.886
0.060,-0.817,0.685,31.372,75.134,-91.309
0.086,-0.811,0.676,31.006,76.538,-88.501
0.135,-0.815,0.648,29.053,75.562,-87.952

0.509,-1.008,0.597,21.729,49.316,-76.782
0.564,-1.016,0.609,24.719,46.387,-69.946
0.603,-1.021,0.650,27.405,42.236,-63.660
0.649,-1.034,0.704,27.832,38.452,-57.983
0.690,-1.060,0.745,24.170,34.912,-52.673
0.727,-1.078,0.767,17.822,32.837,-46.875
0.776,-1.065,0.767,11.536,33.264,-40.161
0.813,-1.052,0.751,6.226,32.959,-32.654
0.835,-1.041,0.730,0.854,30.884,-25.574
0.853,-1.029,0.708,-4.761,26.855,-18.860
0.860,-1.014,0.685,-9.094,21.912,-12.146
0.865,-1.005,0.660,-11.841,15.930,-5.066
0.858,-1.005,0.647,-13.550,8.911,1.221
0.854,-1.015,0.639,-15.015,2.014,6.958
0.857,-1.036,0.641,-17.944,-4.395,12.695
0.853,-1.047,0.636,-22.156,-10.071,18.738
0.850,-1.047,0.605,-25.391,-15.015,24.841
0.840,-1.035,0.580,-29.358,-18.494,31.738
0.822,-1.008,0.558,-34.851,-22.705,39.490
0.798,-0.975,0.548,-39.124,-27.283,47.668
0.754,-0.934,0.557,-41.016,-31.311,57.068
0.710,-0.892,0.557,-39.612,-34.973,66.650
0.648,-0.861,0.578,-35.889,-39.429,74.707
0.583,-0.847,0.609,-31.860,-43.518,81.177
0.508,-0.829,0.646,-29.785,-46.936,86.243
0.446,-0.804,0.664,-30.334,-50.476,89.783
0.397,-0.768,0.661,-34.058,-53.955,91.919
0.349,-0.733,0.661,-39.551,-57.678,93.018
0.308,-0.711,0.654,-44.189,-60.486,93.994
0.260,-0.700,0.650,-47.119,-63.354,95.764
0.188,-0.686,0.653,-48.401,-66.650,98.450
0.119,-0.676,0.666,-49.255,-68.481,101.257
0.037,-0.670,0.682,-48.401,-70.313,103.271
-0.057,-0.680,0.705,-47.302,-71.716,104.797
-0.138,-0.675,0.717,-44.800,-70.740,105.286
-0.198,-0.680,0.736,-42.175,-69.031,103.760
-0.262,-0.685,0.752,-41.138,-68.726,101.929
-0.305,-0.684,0.764,-41.931,-66.833,99.548
-0.343,-0.684,0.772,-43.884,-63.843,96.985
-0.398,-0.679,0.783,-45.349,-62.134,96.680
-0.406,-0.632,0.803,-44.250,-60.730,99.121
-0.470,-0.552,0.866,-43.579,-58.533,102.783
-0.559,-0.556,0.860,-31.860,-56.763,106.628
-0.549,-0.487,0.847,-20.203,-44.983,110.107
-0.576,-0.452,0.800,-10.559,-35.156,112.549
-0.615,-0.369,0.802,-7.690,-31.311,112.732
-0.637,-0.307,0.753,-7.385,-28.015,109.863
-0.650,-0.269,0.731,-9.338,-28.931,102.356
-0.682,-0.258,0.729,-17.029,-35.522,93.079
-0.715,-0.262,0.726,-24.048,-43.335,84.534
-0.738,-0.268,0.729,-25.940,-48.828,77.332
-0.751,-0.263,0.739,-23.743,-52.795,72.021
-0.754,-0.255,0.766,-19.714,-55.054,68.848
-0.760,-0.251,0.790,-15.686,-54.321,66.406
-0.737,-0.245,0.808,-12.146,-50.903,64.758
-0.725,-0.242,0.816,-9.827,-47.058,63.660
-0.753,-0.231,0.834,-9.583,-43.335,61.890
-0.760,-0.198,0.844,-9.460,-38.269,59.570
-0.762,-0.166,0.837,-10.010,-32.410,56.152
-0.780,-0.149,0.826,-12.329,-27.283,51.025
-0.800,-0.140,0.815,-13.550,-23.804,46.448
-0.818,-0.133,0.824,-11.047,-21.484,42.542
-0.823,-0.130,0.837,-4.883,-18.677,39.612
-0.829,-0.115,0.869,2.136,-16.724,38.269
-0.838,-0.085,0.902,8.240,-14.404,37.415
-0.842,-0.056,0.920,12.512,-10.742,36.011
-0.853,-0.026,0.927,14.648,-7.507,33.264
-0.856,-0.004,0.934,14.832,-6.104,29.175
-0.887,-0.011,0.926,13.733,-5.493,22.583
-0.887,-0.001,0.964,5.371,-5.554,15.015
-0.888,0.001,0.984,2.441,-4.211,7.202
-0.881,-0.018,0.990,3.235,-1.099,-1.221
-0.859,-0.036,0.987,2.075,3.235,-7.996
-0.857,-0.045,0.990,-0.916,6.653,-13.550
-0.851,-0.058,0.985,-2.502,9.155,-18.372
-0.841,-0.085,0.983,-2.930,12.146,-23.499
-0.818,-0.123,0.958,-3.296,15.320,-28.076
-0.798,-0.146,0.930,-3.845,16.663,-31.128
-0.801,-0.175,0.918,-2.991,15.381,-33.630
-0.791,-0.208,0.908,-1.038,15.564,-36.621
-0.766,-0.230,0.907,1.404,15.991,-40.161
-0.760,-0.254,0.933,2.747,16.174,-43.884
-0.750,-0.285,0.932,4.150,19.470,-47.729
-0.723,-0.309,0.922,5.432,24.109,-51.208
-0.705,-0.315,0.903,6.226,28.564,-54.138
-0.669,-0.326,0.873,7.446,33.142,-56.213
-0.631,-0.338,0.852,9.216,36.560,-57.617
-0.613,-0.338,0.844,11.169,38.330,-58.350
-0.599,-0.351,0.841,14.709,40.466,-58.838
-0.586,-0.380,0.864,17.639,42.664,-60.486
-0.554,-0.399,0.870,19.958,45.593,-62.561
-0.526,-0.415,0.872,21.301,48.645,-64.392
-0.498,-0.424,0.852,21.057,52.673,-65.308
-0.481,-0.426,0.832,18.188,55.664,-66.467
-0.465,-0.420,0.796,13.733,57.678,-68.481
-0.441,-0.401,0.741,9.888,58.838,-70.862
-0.404,-0.384,0.685,8.484,58.472,-73.853
-0.372,-0.382,0.647,7.263,56.274,-77.209
-0.356,-0.389,0.628,7.874,52.612,-80.688
-0.349,-0.404,0.632,11.353,50.049,-83.618
-0.350,-0.426,0.648,15.503,49.866,-86.243
-0.347,-0.466,0.663,19.104,51.392,-88.806
-0.341,-0.498,0.684,20.508,52.307,-90.637
-0.352,-0.516,0.732,20.813,52.246,-92.163
-0.344,-0.535,0.778,23.376,55.969,-93.567
-0.318,-0.554,0.792,26.794,63.110,-95.093
-0.312,-0.580,0.804,26.978,68.054,-96.069
-0.304,-0.588,0.802,25.330,71.777,-96.130
-0.278,-0.598,0.785,26.855,76.172,-95.581
-0.235,-0.624,0.785,30.762,77.820,-95.093
-0.189,-0.661,0.802,34.302,76.111,-94.604
-0.123,-0.697,0.796,36.560,75.073,-93.811
-0.047,-0.730,0.771,37.598,74.524,-92.834
0.030,-0.773,0.732,34.119,74.036,-92.102
0.115,-0.794,0.674,27.954,73.975,-92.285
0.210,-0.832,0.621,23.193,73.608,-92.773
0.299,-0.872,0.562,19.592,71.411,-91.980
0.380,-0.911,0.569,15.991,66.528,-89.233
0.416,-0.931,0.578,17.456,64.575,-83.557

0.577,-0.896,0.597,33.264,54.688,-53.345
0.630,-0.908,0.649,35.034,46.143,-52.490
0.692,-0.946,0.700,33.386,37.354,-53.406
0.744,-0.994,0.739,25.146,27.710,-54.688
0.800,-1.057,0.768,12.451,19.104,-54.810
0.829,-1.089,0.777,-0.122,13.489,-51.270
0.859,-1.102,0.781,-9.338,10.498,-44.189
0.878,-1.092,0.771,-16.113,8.972,-34.607
0.881,-1.073,0.753,-22.278,6.775,-24.170
0.865,-1.044,0.724,-27.649,4.761,-13.550
0.855,-1.025,0.690,-29.846,2.930,-3.235
0.831,-1.015,0.658,-28.503,-0.610,6.775
0.804,-1.012,0.662,-24.170,-5.188,15.869
0.790,-1.023,0.665,-18.250,-9.583,23.621
0.767,-1.018,0.664,-15.137,-13.550,31.921
0.745,-0.989,0.668,-17.456,-17.273,39.978
0.706,-0.958,0.665,-22.461,-21.912,47.058
0.669,-0.927,0.662,-27.954,-27.649,52.063
0.623,-0.910,0.666,-31.250,-33.936,56.335
0.559,-0.896,0.692,-32.410,-39.490,61.035
0.489,-0.892,0.714,-33.447,-42.786,65.796
0.434,-0.888,0.723,-33.875,-44.189,70.862
0.400,-0.890,0.714,-32.104,-44.312,76.050
0.373,-0.890,0.715,-28.748,-43.823,81.726
0.344,-0.881,0.722,-25.146,-43.335,87.341
0.320,-0.856,0.729,-23.010,-42.542,91.797
0.288,-0.817,0.728,-23.437,-40.894,95.703
0.238,-0.781,0.734,-24.353,-39.246,98.022
0.185,-0.759,0.723,-25.024,-39.490,99.182
0.132,-0.732,0.723,-27.283,-42.419,100.159
0.093,-0.706,0.718,-28.503,-46.143,100.769
0.063,-0.682,0.727,-26.794,-49.622,101.624
0.037,-0.663,0.730,-23.499,-52.063,102.417
0.008,-0.652,0.717,-20.569,-53.406,103.760
-0.024,-0.637,0.691,-19.592,-54.382,105.469
-0.065,-0.630,0.665,-17.395,-55.542,106.995
-0.106,-0.596,0.653,-15.869,-56.763,108.765
-0.158,-0.568,0.662,-14.282,-60.791,109.131
-0.208,-0.552,0.704,-12.695,-66.528,108.154
-0.250,-0.561,0.732,-12.390,-69.458,106.506
-0.279,-0.571,0.746,-14.160,-68.665,105.408
-0.330,-0.580,0.747,-16.541,-66.589,105.469
-0.385,-0.578,0.732,-17.822,-62.195,106.750
-0.431,-0.562,0.718,-15.137,-56.396,108.765
-0.479,-0.533,0.725,-10.803,-51.086,110.840
-0.503,-0.492,0.720,-7.812,-45.837,112.122
-0.521,-0.446,0.702,-6.897,-42.480,111.816
-0.559,-0.402,0.696,-9.460,-42.114,109.985
-0.604,-0.353,0.692,-12.268,-41.870,107.483
-0.637,-0.305,0.706,-12.634,-41.199,103.760
-0.654,-0.273,0.708,-9.766,-41.077,98.450
-0.692,-0.259,0.715,-8.179,-43.579,91.858
-0.753,-0.252,0.753,-11.169,-47.668,84.717
-0.785,-0.237,0.799,-15.137,-51.208,78.064
-0.794,-0.238,0.827,-17.212,-51.758,70.740
-0.796,-0.246,0.839,-19.348,-50.842,63.843
-0.782,-0.253,0.852,-22.400,-49.011,58.777
-0.782,-0.244,0.870,-25.635,-45.532,55.237
-0.783,-0.231,0.877,-26.489,-39.551,52.307
-0.786,-0.222,0.866,-25.085,-33.264,50.232
-0.796,-0.220,0.862,-23.865,-28.564,48.767
-0.816,-0.225,0.840,-21.057,-25.696,47.607
-0.853,-0.201,0.852,-18.188,-22.888,46.082
-0.854,-0.185,0.855,-11.841,-20.081,44.189
-0.860,-0.170,0.877,-2.502,-19.409,41.260
-0.859,-0.159,0.918,2.502,-19.043,38.208
-0.859,-0.150,0.952,5.249,-17.944,35.095
-0.860,-0.149,0.974,6.409,-17.456,31.921
-0.862,-0.145,0.994,6.226,-16.724,28.625
-0.864,-0.123,1.000,5.920,-14.587,24.841
-0.862,-0.097,1.010,4.700,-11.902,20.325
-0.858,-0.065,1.023,2.502,-7.935,13.855
-0.847,-0.037,1.035,-0.061,-3.784,6.836
-0.836,-0.016,1.043,0.061,0.000,0.977
-0.825,-0.017,1.056,2.380,4.578,-3.784
-0.814,-0.032,1.059,4.272,9.155,-8.179
-0.816,-0.048,1.061,3.906,11.841,-12.085
-0.829,-0.066,1.043,2.258,14.832,-16.113
-0.836,-0.091,1.001,0.183,18.372,-20.752
-0.822,-0.117,0.952,-2.197,21.240,-26.855
-0.804,-0.142,0.915,-5.249,22.034,-33.813
-0.799,-0.156,0.910,-6.958,20.996,-39.673
-0.784,-0.186,0.904,-5.920,22.644,-44.739
-0.768,-0.217,0.891,-4.517,26.611,-48.340
-0.758,-0.251,0.893,-2.747,29.236,-50.354
-0.742,-0.278,0.897,-0.610,31.067,-51.697
-0.732,-0.294,0.897,1.221,33.936,-52.856
-0.715,-0.308,0.882,2.869,39.001,-54.749
-0.687,-0.321,0.858,3.906,43.762,-56.946
-0.670,-0.335,0.845,4.822,46.265,-59.326
-0.669,-0.339,0.848,7.446,48.584,-62.134
-0.643,-0.340,0.836,10.254,53.406,-66.040
-0.612,-0.349,0.813,12.329,59.021,-70.435
-0.586,-0.361,0.809,12.512,61.218,-74.341
-0.541,-0.377,0.804,14.038,62.622,-77.698
-0.501,-0.408,0.807,15.564,64.697,-80.505
-0.472,-0.417,0.826,17.090,66.040,-81.482
-0.429,-0.426,0.838,19.348,68.237,-82.336
-0.391,-0.445,0.827,19.226,70.679,-85.022
-0.359,-0.474,0.810,16.357,70.618,-89.050
-0.334,-0.513,0.796,12.817,69.275,-94.543
-0.287,-0.578,0.747,12.390,69.580,-99.976
-0.229,-0.634,0.690,14.526,70.740,-103.149
-0.172,-0.673,0.649,16.174,71.289,-103.943
-0.140,-0.717,0.642,19.775,69.397,-102.722
-0.107,-0.743,0.672,26.550,67.139,-100.037
-0.068,-0.759,0.709,33.142,67.139,-97.107
-0.040,-0.782,0.752,36.621,67.383,-94.238
-0.033,-0.805,0.782,37.048,67.871,-90.637
-0.017,-0.806,0.774,33.691,70.068,-86.243
0.013,-0.794,0.742,29.724,73.181,-82.092
0.054,-0.771,0.707,26.428,74.341,-79.163
0.106,-0.737,0.676,22.888,74.463,-77.454
0.168,-0.737,0.626,19.897,73.669,-77.942
0.221,-0.767,0.605,17.395,68.237,-79.712
0.274,-0.802,0.586,15.747,61.035,-81.116
0.341,-0.853,0.563,13.855,56.580,-81.360
0.392,-0.902,0.567,12.207,51.208,-79.468
0.399,-0.938,0.596,12.268,44.617,-75.500

0.498,-0.922,0.631,15.015,45.715,-66.162
0.535,-0.899,0.641,14.648,45.105,-60.791
0.566,-0.875,0.670,15.137,41.504,-56.030
0.595,-0.859,0.702,13.611,38.757,-52.124
0.622,-0.847,0.718,10.498,37.537,-48.523
0.646,-0.834,0.725,7.446,35.950,-44.800
0.670,-0.831,0.731,4.211,34.790,-40.649
0.693,-0.824,0.720,0.244,35.706,-36.072
0.728,-0.814,0.701,-3.418,36.499,-30.823
0.754,-0.805,0.685,-6.165,35.645,-25.635
0.775,-0.795,0.683,-7.935,35.950,-20.447
0.795,-0.790,0.685,-6.958,36.011,-14.709
0.804,-0.799,0.689,-5.676,33.691,-9.033
0.827,-0.815,0.685,-7.019,32.471,-3.967
0.836,-0.834,0.663,-7.080,29.785,1.526
0.825,-0.839,0.628,-6.042,22.461,8.728
0.815,-0.827,0.596,-10.315,13.123,14.893
0.801,-0.813,0.561,-16.418,2.258,19.470
0.804,-0.793,0.541,-22.095,-9.521,22.705
0.801,-0.791,0.537,-26.062,-21.423,25.269
0.792,-0.798,0.542,-26.794,-33.081,28.687
0.773,-0.809,0.560,-24.841,-42.908,33.447
0.729,-0.826,0.568,-22.766,-49.072,39.246
0.664,-0.839,0.596,-20.203,-54.382,46.875
0.601,-0.844,0.632,-16.663,-59.631,55.237
0.538,-0.836,0.667,-13.245,-64.819,63.782
0.472,-0.821,0.726,-10.498,-68.237,71.533
0.408,-0.804,0.793,-7.202,-68.237,77.637
0.362,-0.791,0.842,-6.409,-65.125,81.299
0.296,-0.779,0.864,-9.827,-61.340,82.825
0.229,-0.774,0.854,-15.869,-54.504,82.886
0.184,-0.776,0.825,-20.874,-45.532,82.092
0.144,-0.781,0.818,-21.057,-41.870,82.031
0.125,-0.786,0.816,-17.761,-42.786,83.069
0.120,-0.798,0.852,-13.367,-46.082,85.205
0.101,-0.812,0.891,-8.789,-48.706,87.769
0.085,-0.810,0.918,-5.859,-47.607,91.248
0.061,-0.793,0.906,-5.005,-41.809,94.604
0.047,-0.757,0.862,-5.188,-33.936,96.924
0.031,-0.713,0.777,-8.118,-28.748,98.267
0.014,-0.647,0.683,-13.367,-28.381,98.877
0.001,-0.572,0.591,-19.714,-30.823,98.267
-0.011,-0.511,0.496,-24.109,-36.133,96.008
-0.060,-0.464,0.428,-30.273,-45.898,93.140
-0.123,-0.452,0.346,-33.325,-57.068,90.454
-0.185,-0.417,0.397,-35.767,-72.144,89.844
-0.276,-0.402,0.415,-25.391,-85.449,89.722
-0.339,-0.394,0.449,-19.226,-88.867,92.346
-0.449,-0.385,0.519,-9.949,-92.834,92.102
-0.522,-0.381,0.626,-8.545,-95.764,91.370
-0.602,-0.384,0.729,-11.169,-97.534,88.257
-0.662,-0.395,0.813,-17.761,-96.375,84.473
-0.714,-0.394,0.846,-23.987,-89.417,80.261
-0.759,-0.385,0.864,-28.259,-79.041,75.745
-0.792,-0.372,0.874,-30.579,-68.176,71.838
-0.832,-0.364,0.876,-32.104,-58.960,69.214
-0.867,-0.351,0.879,-31.250,-51.147,67.688
-0.876,-0.329,0.883,-25.269,-43.823,67.444
-0.887,-0.311,0.899,-14.648,-38.025,67.749
-0.890,-0.274,0.929,-6.226,-33.081,68.481
-0.888,-0.237,0.943,-0.244,-28.625,68.481
-0.887,-0.205,0.972,1.953,-25.269,66.528
-0.896,-0.157,1.002,0.793,-21.790,62.744
-0.876,-0.126,1.010,-2.319,-16.541,56.580
-0.852,-0.122,0.999,-7.751,-11.902,49.866
-0.843,-0.122,0.981,-14.465,-9.583,43.884
-0.836,-0.122,0.956,-18.188,-6.836,39.063
-0.828,-0.131,0.940,-18.188,-3.723,35.400
-0.839,-0.124,0.915,-14.954,-1.709,32.593
-0.843,-0.117,0.906,-9.583,0.366,29.236
-0.830,-0.138,0.858,-1.770,1.953,24.048
-0.803,-0.128,0.907,-0.732,-0.305,18.188
-0.788,-0.127,0.943,-0.183,-2.808,14.221
-0.771,-0.153,0.939,2.991,-1.587,8.728
-0.749,-0.172,0.933,3.418,0.061,4.578
-0.761,-0.167,0.948,-0.244,-0.916,1.404
-0.776,-0.161,0.979,-3.418,-2.197,-1.526
-0.792,-0.156,1.018,-2.136,-1.587,-4.150
-0.805,-0.143,1.066,1.587,1.465,-6.775
-0.802,-0.129,1.090,5.554,6.958,-9.644
-0.795,-0.116,1.100,6.531,11.963,-13.489
-0.780,-0.109,1.093,4.822,16.357,-18.188
-0.769,-0.108,1.067,1.343,19.836,-23.621
-0.754,-0.121,1.038,-1.465,23.010,-29.541
-0.720,-0.148,0.995,-4.395,26.245,-35.339
-0.704,-0.179,0.943,-7.568,27.832,-39.856
-0.702,-0.202,0.899,-9.460,28.748,-43.152
-0.681,-0.210,0.842,-8.423,32.349,-45.959
-0.648,-0.225,0.801,-3.113,36.438,-48.279
-0.624,-0.244,0.792,4.028,37.292,-50.232
-0.607,-0.264,0.807,9.766,37.109,-51.392
-0.594,-0.289,0.825,14.038,37.537,-53.101
-0.570,-0.318,0.838,16.235,40.161,-55.420
-0.553,-0.347,0.837,14.771,43.945,-58.289
-0.515,-0.378,0.813,12.878,47.363,-60.974
-0.466,-0.399,0.780,10.193,49.622,-63.416
-0.438,-0.416,0.764,5.249,50.293,-65.552
-0.438,-0.422,0.784,2.869,51.941,-67.688
-0.416,-0.437,0.804,3.235,55.786,-71.228
-0.376,-0.466,0.821,2.808,58.411,-76.355
-0.352,-0.511,0.846,0.977,58.716,-81.299
-0.328,-0.567,0.858,-0.916,59.326,-85.693
-0.285,-0.613,0.841,-0.427,62.256,-88.745
-0.225,-0.652,0.811,0.000,65.796,-90.454
-0.178,-0.678,0.767,-1.770,68.481,-91.064
-0.135,-0.680,0.706,-2.014,70.618,-91.003
-0.090,-0.681,0.670,2.136,71.411,-89.722
-0.052,-0.675,0.662,8.545,70.251,-88.318
-0.011,-0.671,0.663,15.686,67.139,-86.426
0.009,-0.672,0.681,22.583,62.012,-83.923
0.030,-0.669,0.705,27.771,57.800,-81.665
0.053,-0.674,0.737,31.372,55.603,-79.407
0.085,-0.688,0.755,32.959,54.810,-77.759
0.129,-0.687,0.772,31.067,55.481,-75.867
0.163,-0.692,0.796,27.466,55.786,-74.829
0.188,-0.700,0.810,24.109,56.335,-74.097
0.234,-0.709,0.792,20.264,59.082,-73.792
0.281,-0.724,0.758,16.602,61.462,-73.730
0.331,-0.733,0.727,13.062,60.181,-72.998

-0.934,-0.323,0.816,35.583,62.134,-101.868
-0.954,-0.345,0.822,35.767,64.758,-110.535
-0.941,-0.397,0.834,36.133,65.613,-122.925
-0.885,-0.492,0.842,31.372,67.871,-130.676
-0.829,-0.600,0.818,30.884,70.740,-139.282
-0.749,-0.716,0.778,27.710,74.890,-143.372
-0.671,-0.826,0.712,24.292,79.651,-144.348
-0.576,-0.920,0.624,23.010,84.961,-144.348
-0.456,-1.010,0.529,22.522,89.111,-143.738
-0.316,-1.095,0.479,23.010,88.867,-142.761
-0.156,-1.157,0.459,28.687,87.158,-141.663
0.035,-1.222,0.469,38.086,91.553,-139.709
0.238,-1.298,0.460,47.424,99.854,-135.193
0.405,-1.339,0.458,56.091,106.506,-127.625
0.562,-1.382,0.452,58.533,109.802,-117.126
0.697,-1.408,0.429,53.040,109.131,-107.178
0.848,-1.370,0.397,42.542,105.469,-99.304
0.997,-1.330,0.384,32.227,98.572,-92.407
1.113,-1.301,0.398,23.804,88.867,-85.693
1.226,-1.262,0.417,17.578,78.552,-79.346
1.323,-1.252,0.417,11.353,68.481,-73.669
1.392,-1.275,0.396,3.174,57.800,-69.580
1.428,-1.302,0.377,-5.554,46.997,-65.002
1.465,-1.331,0.361,-12.085,35.339,-59.631
1.500,-1.383,0.348,-18.066,23.437,-53.772
1.532,-1.461,0.341,-23.499,10.925,-47.302
1.556,-1.545,0.341,-28.625,0.793,-38.391
1.555,-1.640,0.338,-35.522,-4.456,-25.574
1.491,-1.661,0.314,-40.894,-7.751,-7.019
1.417,-1.635,0.260,-41.870,-11.169,15.076
1.315,-1.579,0.200,-42.847,-15.869,37.415
1.159,-1.495,0.174,-43.152,-23.010,59.204
0.975,-1.367,0.197,-39.246,-32.349,78.979
0.809,-1.243,0.235,-31.433,-42.542,95.154
0.632,-1.151,0.307,-25.024,-54.382,107.056
0.457,-1.068,0.410,-19.714,-64.636,114.624
0.317,-0.979,0.515,-18.188,-68.787,116.821
0.244,-0.924,0.569,-21.545,-71.472,114.258
0.181,-0.927,0.618,-29.480,-76.599,109.619
0.107,-0.929,0.685,-35.889,-81.665,107.422
0.062,-0.929,0.728,-35.767,-80.017,108.948
0.039,-0.934,0.750,-32.227,-73.730,114.563
-0.048,-0.927,0.775,-28.137,-70.374,123.352
-0.125,-0.885,0.791,-21.606,-67.383,133.728
-0.197,-0.835,0.785,-14.709,-62.073,142.090
-0.257,-0.789,0.780,-9.216,-58.289,147.034
-0.305,-0.744,0.764,-6.104,-56.885,148.254
-0.307,-0.687,0.767,-5.798,-57.251,145.081
-0.292,-0.662,0.763,-9.888,-59.692,137.878
-0.277,-0.645,0.735,-19.104,-64.575,129.944
-0.253,-0.633,0.678,-28.076,-68.542,123.474
-0.228,-0.619,0.621,-32.166,-71.777,119.690
-0.224,-0.608,0.609,-32.654,-75.623,119.141
-0.244,-0.610,0.600,-27.161,-77.576,120.422
-0.258,-0.614,0.610,-20.630,-78.552,122.986
-0.268,-0.602,0.625,-16.724,-80.811,124.756
-0.286,-0.594,0.640,-17.029,-81.726,125.732
-0.316,-0.606,0.633,-20.874,-80.017,124.878
-0.357,-0.615,0.608,-28.137,-78.430,122.253
-0.394,-0.627,0.592,-36.560,-77.209,118.408
-0.446,-0.645,0.583,-42.175,-76.111,114.929
-0.503,-0.630,0.599,-41.992,-75.317,113.342
-0.546,-0.598,0.628,-35.278,-72.876,112.976
-0.594,-0.565,0.657,-25.940,-70.007,113.159
-0.658,-0.519,0.684,-17.639,-68.237,112.976
-0.701,-0.472,0.713,-10.559,-66.895,111.450
-0.731,-0.445,0.747,-5.127,-64.453,107.849
-0.766,-0.413,0.789,-3.052,-63.110,104.126
-0.766,-0.394,0.865,-4.517,-61.951,101.746
-0.791,-0.388,0.921,-2.197,-57.312,98.511
-0.825,-0.357,0.967,-2.136,-50.171,94.482
-0.849,-0.302,0.990,-8.911,-41.992,92.590
-0.870,-0.264,0.978,-14.832,-35.278,87.524
-0.875,-0.232,0.957,-19.592,-30.945,79.590
-0.860,-0.205,0.922,-23.804,-28.870,71.899
-0.858,-0.201,0.856,-23.010,-28.870,63.904
-0.839,-0.212,0.817,-19.409,-30.273,56.580
-0.816,-0.235,0.801,-16.235,-33.752,50.537
-0.796,-0.255,0.820,-14.404,-38.940,46.875
-0.773,-0.269,0.865,-10.315,-43.823,44.739
-0.758,-0.302,0.881,-4.822,-43.274,43.335
-0.740,-0.301,0.894,-3.357,-38.757,44.006
-0.739,-0.272,0.905,0.854,-31.677,44.800
-0.721,-0.247,0.895,4.333,-23.499,43.274
-0.693,-0.236,0.898,4.150,-19.470,38.635
-0.674,-0.221,0.913,-1.099,-19.470,32.532
-0.656,-0.213,0.922,-8.240,-19.409,25.940
-0.634,-0.209,0.918,-14.282,-17.761,19.409
-0.612,-0.218,0.916,-17.822,-16.907,13.489
-0.592,-0.235,0.918,-18.494,-15.930,8.850
-0.566,-0.245,0.931,-16.724,-14.404,5.920
-0.544,-0.259,0.946,-13.611,-12.939,4.272
-0.523,-0.278,0.964,-10.132,-12.512,3.174
-0.482,-0.297,0.971,-7.385,-11.658,2.197
-0.444,-0.320,0.981,-5.859,-10.986,1.892
-0.426,-0.333,0.994,-4.456,-9.644,2.869
-0.413,-0.326,0.996,-1.953,-5.859,4.395
-0.389,-0.323,0.978,-0.488,-1.343,5.554
-0.362,-0.325,0.954,-1.404,0.610,4.944
-0.333,-0.327,0.938,-3.723,0.305,3.479
-0.298,-0.331,0.933,-5.066,-0.366,2.136
-0.264,-0.334,0.928,-4.700,0.366,1.038
-0.238,-0.341,0.917,-3.479,2.625,0.366
-0.225,-0.347,0.900,-3.113,5.310,-0.122
-0.216,-0.356,0.873,-3.906,6.836,-0.854
-0.205,-0.368,0.843,-4.822,6.592,-1.770
-0.187,-0.383,0.826,-5.371,5.493,-2.625
-0.166,-0.397,0.822,-5.737,4.639,-2.991
-0.143,-0.408,0.816,-5.066,4.517,-2.686
-0.128,-0.416,0.816,-4.150,4.883,-1.953
-0.129,-0.413,0.812,-4.028,4.761,-1.160
-0.125,-0.415,0.793,-3.052,4.883,-0.671
-0.112,-0.419,0.785,-1.648,5.859,-0.732
-0.106,-0.435,0.788,-0.854,5.859,-0.671
-0.116,-0.444,0.795,-0.122,4.456,0.000
-0.120,-0.437,0.801,0.977,3.662,0.488
-0.106,-0.442,0.809,2.441,3.540,0.366
-0.093,-0.459,0.821,3.418,2.441,0.366
-0.088,-0.465,0.846,3.479,0.854,1.282

-0.868,-0.179,0.946,7.446,43.274,-69.946
-0.851,-0.209,0.920,8.545,46.265,-74.463
-0.830,-0.246,0.889,10.376,48.950,-77.148
-0.818,-0.274,0.852,10.437,50.659,-78.491
-0.801,-0.284,0.843,8.179,51.636,-79.346
-0.815,-0.324,0.837,9.338,53.650,-81.177
-0.812,-0.359,0.824,11.719,58.105,-83.374
-0.805,-0.384,0.802,13.916,63.293,-85.815
-0.811,-0.412,0.769,15.869,67.505,-88.928
-0.785,-0.437,0.732,18.494,72.571,-92.896
-0.742,-0.472,0.705,19.897,76.294,-97.046
-0.708,-0.497,0.707,20.203,77.820,-100.830
-0.666,-0.521,0.696,21.118,79.712,-103.516
-0.638,-0.561,0.684,22.156,82.153,-105.408
-0.615,-0.595,0.669,23.499,83.313,-107.117
-0.597,-0.638,0.679,27.344,83.435,-108.459
-0.547,-0.686,0.693,33.020,84.229,-110.840
-0.497,-0.737,0.703,37.109,84.595,-112.732
-0.464,-0.791,0.703,38.330,84.473,-113.525
-0.426,-0.840,0.670,37.354,85.754,-113.342
-0.379,-0.868,0.617,34.424,87.219,-113.281
-0.331,-0.899,0.563,31.128,86.548,-113.159
-0.242,-0.883,0.519,25.330,85.571,-112.488
-0.237,-0.888,0.463,26.062,83.435,-114.441
-0.135,-0.871,0.443,26.428,81.238,-111.145
-0.059,-0.867,0.451,33.264,80.627,-106.445
-0.002,-0.880,0.484,44.922,79.956,-104.553
0.055,-0.902,0.522,49.988,79.224,-101.379
0.113,-0.969,0.536,49.866,77.576,-100.525
0.163,-1.023,0.540,41.260,73.975,-100.159
0.215,-1.054,0.531,31.433,71.167,-99.548
0.311,-1.078,0.513,27.771,70.557,-98.511
0.414,-1.102,0.508,28.503,69.275,-95.459
0.523,-1.137,0.498,30.823,67.810,-89.600
0.605,-1.173,0.502,34.729,67.444,-81.787
0.688,-1.191,0.504,38.025,66.833,-72.083
0.763,-1.199,0.496,36.682,66.040,-61.523
0.838,-1.201,0.484,32.104,62.134,-53.101
0.918,-1.217,0.482,26.367,56.213,-46.753
0.990,-1.238,0.494,20.935,49.866,-41.199
1.056,-1.255,0.505,16.479,44.739,-35.339
1.109,-1.264,0.511,10.437,38.635,-27.588
1.137,-1.255,0.519,2.747,31.494,-18.005
1.147,-1.218,0.507,-5.127,24.963,-7.690
1.139,-1.170,0.486,-12.024,18.860,1.648
1.113,-1.122,0.461,-17.822,11.292,10.071
1.081,-1.081,0.440,-20.935,2.563,17.761
1.022,-1.049,0.441,-21.301,-6.958,24.841
0.954,-1.030,0.458,-21.240,-17.395,32.104
0.877,-1.016,0.479,-21.729,-27.710,38.879
0.799,-1.013,0.502,-23.804,-36.316,45.410
0.733,-1.011,0.515,-25.146,-41.992,51.880
0.667,-1.005,0.535,-25.818,-46.692,58.716
0.587,-0.988,0.546,-26.550,-51.025,65.430
0.503,-0.967,0.572,-28.564,-54.565,71.289
0.417,-0.943,0.600,-29.236,-56.824,76.599
0.336,-0.908,0.638,-29.358,-58.716,81.848
0.249,-0.872,0.679,-29.114,-58.960,86.670
0.166,-0.835,0.709,-26.733,-59.082,91.187
0.094,-0.798,0.729,-23.193,-58.105,94.971
0.044,-0.754,0.744,-20.569,-57.068,97.290
0.004,-0.724,0.765,-18.005,-57.678,98.083
-0.009,-0.711,0.794,-16.357,-57.739,97.412
-0.019,-0.702,0.832,-17.761,-58.044,95.947
-0.033,-0.701,0.848,-21.179,-57.251,94.360
-0.059,-0.700,0.823,-24.536,-54.077,94.910
-0.089,-0.692,0.777,-25.574,-49.866,97.107
-0.128,-0.677,0.727,-24.658,-48.401,100.159
-0.155,-0.652,0.699,-22.461,-50.415,103.271
-0.164,-0.628,0.679,-19.653,-52.979,105.042
-0.177,-0.617,0.674,-18.494,-54.810,105.957
-0.193,-0.610,0.680,-18.616,-57.129,106.018
-0.211,-0.603,0.677,-19.409,-58.716,105.286
-0.235,-0.599,0.656,-21.301,-58.594,103.943
-0.257,-0.602,0.631,-24.963,-58.960,102.478
-0.306,-0.603,0.617,-28.259,-60.608,101.013
-0.345,-0.611,0.631,-29.358,-63.599,101.074
-0.376,-0.593,0.659,-24.841,-63.538,101.624
-0.418,-0.570,0.677,-20.691,-61.890,103.516
-0.459,-0.535,0.704,-15.442,-60.120,104.431
-0.505,-0.495,0.727,-10.437,-57.312,104.309
-0.550,-0.446,0.753,-5.676,-54.810,102.600
-0.587,-0.419,0.771,-2.075,-51.880,98.511
-0.628,-0.385,0.805,-0.854,-49.988,92.834
-0.644,-0.359,0.807,-2.686,-48.523,85.999
-0.657,-0.350,0.803,-6.836,-48.828,78.430
-0.667,-0.349,0.815,-10.986,-51.453,71.533
-0.676,-0.347,0.821,-12.817,-54.565,66.772
-0.687,-0.345,0.839,-13.367,-56.030,63.416
-0.692,-0.325,0.856,-12.939,-53.772,59.875
-0.690,-0.319,0.875,-11.230,-50.537,56.824
-0.677,-0.325,0.893,-9.949,-47.974,54.199
-0.657,-0.344,0.916,-10.437,-43.945,50.781
-0.620,-0.357,0.925,-14.038,-37.842,47.913
-0.588,-0.356,0.902,-17.273,-31.677,45.837
-0.562,-0.354,0.869,-19.226,-27.222,44.739
-0.548,-0.352,0.851,-20.264,-24.170,43.701
-0.538,-0.332,0.833,-18.677,-20.813,42.908
-0.524,-0.302,0.813,-13.916,-17.334,42.053
-0.513,-0.266,0.806,-8.240,-15.869,40.222
-0.510,-0.247,0.826,-3.845,-16.663,37.354
-0.508,-0.238,0.853,-1.160,-17.700,32.898
-0.493,-0.238,0.879,0.122,-18.494,27.832
-0.473,-0.255,0.895,-0.610,-18.616,22.522
-0.452,-0.283,0.915,-2.380,-18.982,18.127
-0.439,-0.318,0.942,-3.662,-19.226,15.442
-0.437,-0.343,0.951,-3.662,-17.090,14.465
-0.423,-0.352,0.941,-2.075,-12.390,14.038
-0.405,-0.360,0.923,-0.610,-8.850,13.550
-0.392,-0.363,0.920,-1.221,-7.812,12.939
-0.380,-0.366,0.910,-2.502,-7.263,11.475
-0.353,-0.363,0.900,-2.563,-6.287,9.460
-0.322,-0.365,0.900,-1.953,-6.653,7.263
-0.299,-0.385,0.913,-1.282,-7.141,5.432
-0.287,-0.403,0.920,-0.854,-6.958,4.456
-0.284,-0.407,0.926,-0.183,-6.165,3.601
-0.268,-0.416,0.928,1.221,-2.930,1.892
-0.239,-0.436,0.913,1.038,0.671,0.183
-0.216,-0.457,0.897,-0.854,1.160,-0.549

-0.870,-0.193,0.999,-0.916,21.545,-10.986
-0.998,-0.160,0.993,0.061,25.452,-13.184
-1.102,-0.131,0.981,0.549,30.396,-16.235
-1.295,-0.121,0.958,3.174,34.424,-19.653
-1.498,-0.076,0.939,1.282,39.490,-19.592
-1.702,0.020,0.913,4.333,46.875,-19.897
-1.934,0.113,0.867,8.118,56.641,-22.766
-2.151,0.237,0.848,11.719,65.063,-29.114
-2.372,0.340,0.850,18.127,72.327,-40.283
-2.592,0.433,0.843,20.630,81.238,-56.580
-2.750,0.511,0.880,22.949,87.402,-78.308
-2.899,0.546,0.989,25.391,88.440,-105.042
-3.034,0.507,1.164,28.076,92.407,-135.193
-3.114,0.421,1.341,30.701,107.239,-167.725
-3.180,0.232,1.364,27.832,126.282,-201.416
-3.094,-0.006,1.173,15.381,146.484,-236.694
-2.887,-0.363,0.799,-2.502,159.058,-276.245
-2.490,-0.813,0.343,-20.203,160.889,-312.866
-2.062,-1.533,-0.216,-3.540,154.358,-354.675
-1.110,-2.404,-0.735,24.963,148.804,-380.249
-0.004,-3.352,-1.151,63.049,138.916,-375.671
1.139,-4.000,-1.388,122.192,143.982,-347.839
2.371,-4.000,-1.501,178.101,159.302,-302.490
3.458,-4.000,-1.456,202.209,161.987,-248.108
4.000,-4.000,-1.448,178.467,155.334,-196.289
4.000,-4.000,-1.505,114.990,143.066,-145.630
4.000,-4.000,-1.652,41.992,123.352,-90.088
4.000,-4.000,-1.726,-1.526,93.628,-30.945
4.000,-3.504,-1.540,-10.071,49.622,25.208
4.000,-2.708,-1.109,-4.089,-7.080,75.989
4.000,-2.177,-0.693,-3.052,-60.730,119.141
3.919,-1.841,-0.411,-12.390,-103.882,149.170
3.188,-1.662,-0.233,-21.729,-135.620,163.391
2.438,-1.628,-0.045,-28.198,-165.283,167.725
1.696,-1.655,0.147,-36.438,-191.772,167.053
1.022,-1.710,0.290,-44.434,-201.111,162.231
0.471,-1.773,0.368,-51.025,-200.745,156.555
-0.005,-1.827,0.411,-62.561,-201.965,150.574
-0.366,-1.876,0.408,-79.529,-203.308,145.874
-0.714,-1.820,0.300,-96.924,-201.416,149.109
-1.077,-1.670,0.151,-105.225,-188.293,160.767
-1.413,-1.473,0.008,-97.046,-169.861,174.805
-1.761,-1.232,-0.015,-81.299,-158.447,186.768
-2.086,-0.961,0.106,-60.059,-152.405,194.214
-2.292,-0.663,0.284,-36.316,-146.729,193.848
-2.316,-0.396,0.416,-19.165,-141.357,178.894
-2.251,-0.231,0.496,-17.334,-138.916,150.757
-2.195,-0.174,0.483,-26.123,-137.024,116.638
-2.059,-0.170,0.585,-48.706,-133.850,84.778
-1.904,-0.272,0.612,-75.806,-139.771,64.514
-1.880,-0.328,0.631,-113.464,-149.841,56.702
-1.859,-0.341,0.594,-134.583,-136.169,66.040
-1.814,-0.301,0.514,-126.038,-106.323,78.796
-1.783,-0.217,0.523,-109.558,-82.764,92.346
-1.794,-0.090,0.572,-98.877,-67.932,104.858
-1.767,0.053,0.599,-87.952,-51.514,112.000
-1.672,0.202,0.579,-78.125,-34.180,110.840
-1.574,0.318,0.570,-72.876,-22.095,103.271
-1.476,0.383,0.579,-65.430,-15.015,91.858
-1.345,0.392,0.634,-51.147,-13.855,78.369
-1.213,0.354,0.726,-38.086,-18.311,66.406
-1.117,0.308,0.818,-30.334,-22.461,58.472
-1.028,0.267,0.873,-22.217,-19.531,54.443
-0.963,0.220,0.862,-14.404,-12.268,52.429
-0.930,0.218,0.916,-13.611,-7.141,49.561
-0.890,0.226,0.939,-16.968,-4.456,47.058
-0.853,0.211,0.896,-19.897,-1.404,37.842
-0.832,0.212,0.818,-26.489,0.244,26.428
-0.792,0.184,0.747,-30.334,-1.892,15.503
-0.760,0.141,0.724,-27.466,-9.705,4.333
-0.713,0.087,0.750,-20.142,-18.188,-4.639
-0.651,0.013,0.804,-8.728,-22.827,-11.230
-0.587,-0.055,0.895,3.174,-24.719,-14.648
-0.582,-0.126,0.977,11.597,-24.048,-16.418
-0.546,-0.176,1.021,14.038,-19.043,-18.005
-0.530,-0.228,1.018,9.949,-13.794,-21.179
-0.528,-0.280,0.984,3.845,-9.827,-25.208
-0.504,-0.336,0.919,0.427,-5.066,-28.198
-0.472,-0.403,0.859,-0.427,-1.648,-29.114
-0.449,-0.459,0.830,0.977,-0.916,-27.161
-0.420,-0.493,0.817,5.371,0.488,-23.315
-0.400,-0.509,0.808,9.827,2.563,-18.066
-0.382,-0.501,0.814,12.695,4.944,-12.451
-0.363,-0.494,0.811,14.221,6.775,-8.606
-0.346,-0.500,0.826,12.085,7.019,-6.470
-0.331,-0.508,0.843,6.104,5.859,-5.432
-0.343,-0.502,0.853,-0.854,5.615,-5.188
-0.334,-0.496,0.844,-4.150,9.277,-5.249
-0.294,-0.499,0.821,-6.653,13.123,-5.737
-0.274,-0.500,0.825,-10.071,11.841,-5.798
-0.250,-0.491,0.831,-11.780,10.742,-4.517
-0.233,-0.469,0.819,-10.559,11.963,-1.709
-0.223,-0.433,0.801,-6.836,13.062,1.587
-0.214,-0.402,0.794,-3.235,13.489,4.028
-0.212,-0.384,0.797,-1.160,13.733,4.883
-0.200,-0.371,0.807,0.549,12.817,4.395
-0.226,-0.385,0.814,1.587,10.071,3.113
-0.226,-0.398,0.832,-1.221,6.409,3.296
-0.233,-0.417,0.844,-0.366,4.395,4.028
-0.245,-0.429,0.852,0.977,4.028,4.578
-0.261,-0.432,0.858,0.793,4.028,5.981
-0.287,-0.434,0.870,-0.854,2.686,6.714
-0.297,-0.446,0.858,-1.526,2.380,6.042
-0.297,-0.449,0.854,-2.258,2.686,5.066
-0.293,-0.449,0.855,-1.648,3.662,4.639
-0.300,-0.449,0.858,-0.244,4.089,5.005
-0.310,-0.445,0.850,0.610,4.822,5.493
-0.325,-0.436,0.848,1.587,5.249,6.592
-0.330,-0.428,0.844,2.869,5.859,7.385
-0.341,-0.424,0.853,2.625,6.165,7.568
-0.348,-0.415,0.857,0.916,6.165,7.080
-0.346,-0.408,0.859,-0.916,7.080,6.287
-0.338,-0.411,0.857,-2.014,8.606,5.920
-0.337,-0.419,0.857,-3.601,8.484,6.470
-0.346,-0.418,0.844,-5.371,8.362,7.568
-0.356,-0.400,0.820,-6.042,8.911,9.705
-0.382,-0.374,0.804,-5.615,8.911,11.658
-0.430,-0.355,0.791,-4.089,8.362,13.367
-0.488,-0.324,0.786,-1.648,8.484,15.320

-1.101,0.124,0.921,13.489,27.771,10.803
-1.180,0.207,0.858,12.329,31.494,4.700
-1.267,0.244,0.818,11.414,33.386,-3.235
-1.369,0.247,0.817,12.939,34.424,-12.634
-1.446,0.240,0.825,17.273,37.964,-21.667
-1.527,0.226,0.853,23.315,43.518,-30.212
-1.581,0.217,0.874,29.968,50.354,-38.940
-1.583,0.204,0.850,34.790,59.204,-49.377
-1.595,0.157,0.807,32.288,65.002,-61.646
-1.625,0.112,0.786,26.001,65.247,-74.768
-1.644,0.058,0.779,24.292,65.674,-86.731
-1.664,0.007,0.775,23.987,68.298,-96.863
-1.709,-0.028,0.752,25.635,72.571,-105.164
-1.718,-0.056,0.678,30.029,81.848,-112.976
-1.721,-0.101,0.587,35.645,92.896,-120.178
-1.703,-0.176,0.511,41.382,102.173,-127.991
-1.659,-0.266,0.451,45.166,107.605,-137.512
-1.604,-0.377,0.416,46.997,109.192,-148.010
-1.556,-0.468,0.415,48.828,110.535,-159.180
-1.472,-0.579,0.369,48.828,114.685,-171.631
-1.393,-0.708,0.320,47.729,116.516,-182.922
-1.264,-0.831,0.286,51.575,117.126,-191.650
-1.052,-0.943,0.271,61.462,119.934,-197.388
-0.821,-1.088,0.315,77.026,122.314,-200.256
-0.594,-1.241,0.364,91.736,128.296,-200.500
-0.429,-1.537,0.293,105.835,140.259,-202.942
-0.166,-1.832,0.194,104.919,149.231,-207.275
0.112,-2.120,0.075,83.618,150.574,-201.111
0.404,-2.348,-0.099,74.036,151.062,-198.914
0.748,-2.499,-0.252,70.374,154.053,-188.171
1.056,-2.566,-0.290,70.313,145.813,-168.945
1.338,-2.537,-0.302,75.867,134.888,-146.912
1.608,-2.486,-0.310,75.806,124.695,-122.253
1.821,-2.428,-0.272,72.876,106.140,-97.473
1.998,-2.364,-0.182,70.190,87.219,-76.294
2.181,-2.293,-0.071,65.735,70.801,-59.082
2.370,-2.218,0.043,56.946,52.490,-45.532
2.562,-2.206,0.171,44.373,31.311,-35.400
2.707,-2.261,0.292,26.550,11.047,-23.437
2.765,-2.307,0.329,4.883,-0.671,-4.639
2.757,-2.265,0.234,-17.090,-5.310,22.522
2.647,-2.144,0.062,-37.170,-11.963,54.993
2.385,-1.978,-0.096,-49.683,-23.193,88.074
2.052,-1.753,-0.250,-52.002,-35.522,118.225
1.705,-1.535,-0.332,-43.762,-54.199,142.517
1.361,-1.369,-0.250,-29.297,-83.252,157.898
1.059,-1.256,-0.063,-17.334,-112.427,162.659
0.802,-1.219,0.143,-12.146,-132.141,159.119
0.559,-1.230,0.290,-18.127,-143.921,151.245
0.338,-1.256,0.360,-31.738,-150.024,142.090
0.144,-1.308,0.395,-46.021,-151.123,135.010
-0.033,-1.356,0.446,-59.448,-152.771,133.301
-0.213,-1.376,0.508,-68.970,-153.992,138.611
-0.378,-1.374,0.546,-70.740,-149.109,149.414
-0.569,-1.308,0.543,-67.871,-140.686,163.452
-0.764,-1.197,0.505,-59.753,-131.409,175.720
-0.922,-1.073,0.453,-50.842,-124.268,181.763
-1.047,-0.962,0.398,-45.837,-121.704,180.786
-1.135,-0.865,0.397,-43.945,-125.549,173.889
-1.196,-0.808,0.451,-43.396,-131.958,163.269
-1.264,-0.776,0.506,-42.175,-134.827,152.283
-1.297,-0.710,0.521,-39.001,-132.507,143.738
-1.434,-0.681,0.408,-31.311,-126.465,134.583
-1.295,-0.515,0.629,-32.471,-119.873,130.615
-1.320,-0.424,0.642,-4.822,-112.671,125.488
-1.304,-0.364,0.673,-5.859,-98.633,116.638
-1.297,-0.238,0.700,-24.536,-96.497,112.488
-1.379,-0.152,0.685,-47.852,-97.107,105.652
-1.452,-0.089,0.625,-61.584,-86.060,96.130
-1.461,-0.044,0.593,-64.087,-72.266,88.806
-1.430,-0.002,0.619,-58.655,-63.354,80.933
-1.392,0.007,0.655,-48.523,-54.199,73.608
-1.347,0.022,0.712,-38.635,-45.349,69.885
-1.290,0.037,0.802,-29.663,-39.063,65.857
-1.257,0.052,0.900,-23.926,-34.485,62.012
-1.222,0.038,0.970,-18.982,-27.771,57.800
-1.172,0.041,0.983,-14.587,-20.386,52.490
-1.116,0.048,0.970,-13.245,-14.893,44.312
-1.061,0.012,0.935,-13.794,-11.658,32.959
-1.036,-0.049,0.902,-15.198,-12.268,20.081
-0.934,-0.113,0.895,-19.714,-13.489,8.240
-0.861,-0.191,0.864,-20.874,-13.977,0.000
-0.793,-0.276,0.829,-18.250,-11.780,-5.493
-0.730,-0.332,0.792,-13.123,-7.629,-7.080
-0.678,-0.355,0.781,-7.507,-4.761,-4.944
-0.639,-0.364,0.777,-3.906,-2.502,-1.709
-0.607,-0.351,0.777,-1.221,-0.732,0.427
-0.553,-0.332,0.772,2.869,1.099,1.648
-0.500,-0.318,0.773,5.798,2.747,1.038
-0.449,-0.311,0.772,5.737,3.235,-0.549
-0.403,-0.319,0.784,4.150,2.441,-2.319
-0.372,-0.336,0.811,2.502,0.854,-4.761
-0.373,-0.365,0.839,1.099,0.366,-7.263
-0.357,-0.400,0.824,-1.526,1.709,-9.399
-0.337,-0.436,0.801,-4.517,3.418,-11.169
-0.327,-0.470,0.778,-7.324,3.967,-11.963
-0.302,-0.500,0.769,-6.714,3.967,-11.230
-0.266,-0.511,0.756,-2.930,4.883,-9.644
-0.224,-0.519,0.755,1.038,7.263,-8.118
-0.180,-0.535,0.765,2.991,8.545,-6.653
-0.156,-0.549,0.776,2.258,7.629,-5.310
-0.149,-0.555,0.780,1.587,6.348,-3.601
-0.156,-0.560,0.783,2.991,5.310,-1.526
-0.160,-0.571,0.792,3.906,5.981,-0.549
-0.170,-0.587,0.809,3.052,6.042,0.000
-0.189,-0.603,0.821,0.916,4.761,1.831
-0.208,-0.607,0.818,-0.122,3.906,4.211
-0.216,-0.613,0.820,0.305,3.723,6.470
-0.223,-0.613,0.840,0.488,2.747,8.362
-0.243,-0.605,0.845,0.244,2.747,10.498
-0.244,-0.581,0.832,0.549,5.005,12.573
-0.254,-0.543,0.829,1.526,6.348,14.465
-0.272,-0.502,0.823,2.930,7.629,15.320
-0.269,-0.471,0.822,4.333,9.277,14.099
-0.253,-0.461,0.828,4.578,8.728,11.169
-0.236,-0.470,0.831,2.808,7.263,8.057
-0.218,-0.482,0.826,0.916,6.958,5.737
-0.208,-0.494,0.800,-1.160,7.629,4.578
-0.201,-0.502,0.778,-2.380,7.141,3.784

-1.117,-0.256,0.888,-0.549,15.320,1.465
-1.314,-0.238,0.916,4.578,23.621,4.639
-1.491,-0.170,0.917,12.146,35.583,9.094
-1.618,-0.067,0.907,17.883,45.837,11.108
-1.739,0.026,0.930,17.700,52.307,5.798
-1.799,0.090,0.905,12.817,59.753,-7.629
-1.814,0.109,0.856,-0.305,65.063,-27.588
-1.821,0.072,0.827,-13.611,65.186,-49.438
-1.778,0.008,0.808,-20.752,65.979,-69.397
-1.714,-0.063,0.789,-21.973,69.824,-82.764
-1.682,-0.130,0.784,-19.348,74.097,-90.393
-1.655,-0.183,0.769,-13.428,80.688,-95.642
-1.589,-0.227,0.732,-8.423,90.759,-100.403
-1.546,-0.270,0.684,-4.028,100.586,-105.957
-1.482,-0.293,0.622,-0.916,110.168,-112.488
-1.412,-0.335,0.579,3.723,118.530,-122.009
-1.324,-0.434,0.535,9.277,124.268,-135.498
-1.214,-0.536,0.500,13.794,126.587,-150.879
-1.094,-0.675,0.459,16.296,125.671,-165.527
-0.988,-0.836,0.420,18.860,122.803,-176.208
-0.881,-0.992,0.388,25.818,121.826,-181.946
-0.776,-1.117,0.353,37.415,124.146,-182.007
-0.660,-1.199,0.332,50.537,127.991,-178.711
-0.574,-1.258,0.353,57.434,131.897,-174.500
-0.578,-1.354,0.347,70.007,132.935,-179.871
-0.413,-1.433,0.331,73.303,137.695,-185.181
-0.165,-1.555,0.247,65.186,144.104,-184.143
0.118,-1.710,0.157,65.125,144.409,-191.223
0.451,-1.932,0.065,64.758,144.714,-197.021
0.837,-2.169,-0.044,59.753,147.644,-196.960
1.250,-2.382,-0.209,53.162,149.109,-190.002
1.689,-2.509,-0.344,45.898,147.827,-173.706
2.107,-2.529,-0.451,46.387,145.874,-150.330
2.531,-2.503,-0.516,50.903,136.169,-124.756
2.825,-2.446,-0.524,50.476,112.915,-100.342
3.021,-2.361,-0.468,45.654,84.412,-77.698
3.163,-2.307,-0.360,36.865,55.725,-56.091
3.219,-2.235,-0.226,21.240,23.926,-33.691
3.165,-2.103,-0.153,4.211,-2.991,-7.812
3.009,-1.951,-0.170,-8.606,-19.165,21.179
2.751,-1.764,-0.225,-17.151,-31.372,49.805
2.405,-1.580,-0.253,-22.034,-45.715,75.439
2.022,-1.419,-0.222,-21.362,-65.796,95.032
1.666,-1.307,-0.113,-18.799,-90.515,107.605
1.343,-1.246,0.044,-17.639,-115.662,113.770
1.061,-1.223,0.218,-19.043,-135.620,115.051
0.846,-1.229,0.353,-22.156,-147.278,112.793
0.671,-1.261,0.435,-26.245,-152.832,109.680
0.488,-1.308,0.441,-32.104,-153.381,107.666
0.314,-1.391,0.463,-36.011,-149.475,109.314
0.086,-1.497,0.479,-38.025,-145.935,116.577
-0.212,-1.522,0.495,-38.696,-141.296,131.714
-0.439,-1.483,0.475,-33.997,-130.554,149.170
-0.663,-1.396,0.466,-31.433,-123.108,162.354
-0.919,-1.257,0.486,-32.959,-119.812,168.701
-1.054,-1.078,0.497,-40.466,-114.868,168.884
-1.153,-0.909,0.488,-51.270,-112.549,161.133
-1.254,-0.748,0.488,-64.270,-114.868,147.339
-1.366,-0.627,0.479,-71.899,-116.943,131.287
-1.371,-0.487,0.474,-80.627,-118.347,117.676
-1.344,-0.364,0.477,-85.938,-124.634,106.323
-1.338,-0.273,0.510,-86.914,-133.850,97.473
-1.345,-0.192,0.540,-83.252,-137.512,93.933
-1.330,-0.130,0.547,-76.172,-127.930,91.309
-1.341,-0.079,0.537,-66.162,-114.136,88.623
-1.348,-0.046,0.557,-56.396,-104.065,86.487
-1.360,-0.017,0.605,-45.776,-95.520,83.374
-1.365,-0.006,0.656,-36.926,-85.876,79.590
-1.371,-0.010,0.694,-31.189,-76.416,75.012
-1.344,-0.017,0.732,-27.771,-69.580,69.763
-1.308,-0.033,0.712,-24.780,-61.401,63.232
-1.267,-0.044,0.702,-24.292,-52.979,55.725
-1.231,-0.064,0.691,-24.780,-48.035,48.279
-1.215,-0.110,0.691,-23.315,-44.373,40.894
-1.181,-0.174,0.715,-20.325,-40.710,35.095
-1.145,-0.207,0.746,-17.456,-37.537,31.311
-1.097,-0.201,0.759,-13.611,-31.799,30.029
-1.054,-0.190,0.785,-8.057,-27.283,30.396
-1.033,-0.150,0.829,-2.258,-24.719,30.640
-0.986,-0.107,0.871,3.296,-20.020,28.015
-0.932,-0.086,0.916,7.019,-15.076,22.217
-0.854,-0.091,0.943,4.639,-10.986,14.160
-0.773,-0.123,0.949,-1.282,-8.667,6.470
-0.691,-0.162,0.938,-6.897,-6.470,0.610
-0.626,-0.199,0.905,-9.827,-2.930,-1.709
-0.582,-0.227,0.877,-9.338,-0.061,-1.587
-0.537,-0.255,0.843,-6.775,2.686,-0.793
-0.518,-0.290,0.796,-5.066,4.211,0.061
-0.497,-0.325,0.760,-3.357,4.028,0.488
-0.467,-0.372,0.739,-1.282,2.197,0.427
-0.430,-0.423,0.737,1.831,-0.671,0.183
-0.390,-0.473,0.737,4.883,-3.601,1.282
-0.346,-0.515,0.747,7.324,-6.409,3.479
-0.323,-0.544,0.777,9.216,-7.324,6.653
-0.322,-0.550,0.808,11.047,-5.005,9.766
-0.316,-0.535,0.834,12.024,-0.916,11.536
-0.327,-0.523,0.854,11.230,1.404,10.498
-0.329,-0.526,0.875,5.859,2.747,7.202
-0.321,-0.524,0.890,-0.977,2.991,3.235
-0.304,-0.534,0.875,-7.446,4.395,0.061
-0.271,-0.539,0.854,-10.498,6.287,-1.099
-0.232,-0.538,0.834,-9.033,7.935,-0.793
-0.193,-0.537,0.810,-5.920,9.399,1.099
-0.170,-0.531,0.793,-2.502,9.216,3.723
-0.172,-0.531,0.783,-0.244,7.629,5.798
-0.178,-0.542,0.787,0.305,6.287,6.897
-0.203,-0.553,0.797,0.671,4.150,7.935
-0.228,-0.552,0.806,0.305,4.517,9.583
-0.249,-0.543,0.809,-0.610,5.920,11.169
-0.273,-0.526,0.804,-2.808,5.676,12.390
-0.285,-0.500,0.786,-5.005,5.981,12.512
-0.278,-0.480,0.756,-5.737,7.446,11.536
-0.265,-0.459,0.733,-6.226,7.141,10.193
-0.265,-0.450,0.722,-6.958,5.798,8.606
-0.269,-0.444,0.718,-7.141,4.700,7.874
-0.279,-0.435,0.733,-5.981,3.113,7.690
-0.294,-0.424,0.740,-4.517,2.747,8.118
-0.308,-0.421,0.745,-3.662,2.563,8.728
-0.327,-0.420,0.751,-4.089,0.977,8.972

-1.144,-0.161,0.924,10.254,2.930,1.831
-1.311,-0.090,0.979,15.137,8.118,1.282
-1.458,-0.003,1.028,22.461,16.174,1.892
-1.594,0.092,1.055,29.602,26.367,1.648
-1.717,0.203,1.075,32.166,36.865,-1.953
-1.811,0.285,1.049,30.212,47.791,-11.719
-1.882,0.317,0.998,22.095,58.228,-27.954
-1.906,0.292,0.907,13.611,66.833,-47.241
-1.870,0.235,0.803,7.019,72.693,-65.552
-1.843,0.169,0.718,2.686,76.172,-81.238
-1.807,0.111,0.599,4.395,82.336,-92.590
-1.766,0.048,0.504,9.583,90.637,-100.403
-1.762,-0.013,0.458,16.724,96.741,-107.178
-1.743,-0.071,0.444,24.963,102.722,-113.953
-1.736,-0.136,0.426,32.898,109.985,-122.986
-1.700,-0.232,0.411,38.330,117.554,-134.766
-1.624,-0.369,0.387,41.077,122.437,-149.414
-1.533,-0.531,0.372,42.603,123.779,-163.208
-1.403,-0.721,0.341,45.410,127.930,-175.354
-1.247,-0.888,0.295,52.551,134.155,-184.082
-1.117,-1.075,0.254,60.669,139.465,-188.660
-0.979,-1.281,0.157,68.481,145.325,-189.697
-0.748,-1.368,0.120,66.833,152.222,-188.293
-0.639,-1.520,0.008,76.294,153.259,-194.641
-0.394,-1.637,-0.067,74.524,153.564,-189.514
-0.142,-1.774,-0.123,76.050,150.757,-179.749
0.099,-1.945,-0.147,86.548,148.010,-178.894
0.328,-2.133,-0.143,89.172,148.682,-175.110
0.537,-2.307,-0.154,85.205,149.475,-171.326
0.788,-2.428,-0.204,76.355,148.865,-166.565
1.065,-2.470,-0.232,64.026,143.066,-155.212
1.381,-2.422,-0.231,59.570,135.010,-136.414
1.672,-2.345,-0.183,66.895,127.808,-111.755
1.901,-2.266,-0.060,77.942,116.272,-84.778
2.102,-2.183,0.078,81.177,101.990,-62.622
2.298,-2.167,0.157,69.763,87.585,-49.377
2.475,-2.197,0.188,45.349,69.763,-43.091
2.633,-2.260,0.160,15.503,51.758,-39.001
2.773,-2.326,0.090,-12.024,34.668,-30.396
2.804,-2.365,-0.004,-33.691,18.005,-12.512
2.750,-2.321,-0.151,-49.438,3.784,14.038
2.606,-2.204,-0.267,-57.861,-11.597,47.241
2.373,-2.042,-0.300,-59.753,-32.715,81.421
2.088,-1.856,-0.295,-59.143,-55.298,110.596
1.793,-1.667,-0.283,-54.932,-76.843,132.507
1.508,-1.478,-0.258,-49.561,-98.022,147.461
1.208,-1.337,-0.229,-46.753,-115.967,153.564
0.890,-1.241,-0.176,-45.959,-129.639,153.931
0.599,-1.190,-0.091,-46.509,-139.771,151.062
0.328,-1.165,0.009,-46.204,-151.001,147.827
0.024,-1.181,0.173,-44.678,-163.208,146.118
-0.235,-1.187,0.335,-43.030,-168.640,146.667
-0.465,-1.149,0.423,-43.701,-167.053,149.048
-0.671,-1.090,0.441,-47.485,-158.325,149.597
-0.814,-1.020,0.428,-54.321,-147.522,146.545
-0.920,-0.966,0.425,-61.768,-143.188,141.296
-1.005,-0.943,0.448,-69.641,-139.648,135.315
-1.128,-0.943,0.442,-72.815,-131.409,130.066
-1.184,-0.902,0.440,-74.768,-125.000,129.700
-1.252,-0.820,0.412,-71.533,-125.122,131.409
-1.307,-0.706,0.412,-68.176,-128.418,130.554
-1.372,-0.609,0.426,-62.500,-128.601,126.648
-1.398,-0.534,0.465,-58.228,-124.573,120.239
-1.376,-0.484,0.519,-57.007,-121.277,111.938
-1.349,-0.472,0.571,-59.082,-118.896,106.079
-1.350,-0.472,0.581,-56.519,-111.877,103.149
-1.349,-0.465,0.568,-51.147,-101.013,101.563
-1.356,-0.441,0.573,-51.270,-90.942,103.149
-1.404,-0.402,0.579,-54.810,-81.604,104.614
-1.422,-0.329,0.586,-58.350,-73.669,104.980
-1.444,-0.255,0.575,-50.964,-65.552,101.013
-1.427,-0.190,0.557,-44.678,-56.152,96.863
-1.402,-0.111,0.594,-41.626,-54.077,90.881
-1.393,-0.049,0.662,-39.246,-52.856,82.214
-1.344,-0.016,0.735,-36.377,-49.561,73.120
-1.291,0.019,0.819,-32.104,-48.096,65.857
-1.226,0.060,0.881,-26.611,-44.434,58.777
-1.138,0.092,0.898,-21.179,-37.903,52.185
-1.042,0.098,0.904,-18.616,-32.593,45.898
-0.957,0.106,0.928,-19.226,-30.701,39.429
-0.868,0.109,0.956,-19.287,-27.954,33.447
-0.731,0.117,0.975,-17.456,-23.193,27.710
-0.651,0.072,0.934,-15.503,-19.348,18.982
-0.540,0.043,0.914,-21.729,-18.311,10.925
-0.468,-0.012,0.869,-23.193,-15.686,2.502
-0.434,-0.091,0.783,-25.757,-9.949,-4.150
-0.473,-0.141,0.691,-30.823,-10.071,-6.287
-0.607,-0.177,0.649,-31.799,-14.954,-4.517
-0.762,-0.172,0.631,-24.475,-17.639,1.221
-0.948,-0.158,0.644,-13.062,-19.897,8.362
-1.189,-0.129,0.678,-4.456,-23.071,15.259
-1.445,-0.037,0.753,2.075,-25.330,19.836
-1.668,0.075,0.795,9.399,-22.583,18.494
-1.853,0.171,0.846,10.071,-17.700,11.108
-1.988,0.284,0.906,11.475,-13.672,-1.221
-2.069,0.373,0.996,15.991,-6.287,-13.733
-2.164,0.449,1.056,26.733,5.188,-22.827
-2.241,0.532,1.122,37.292,21.301,-27.893
-2.297,0.589,1.135,44.434,37.903,-32.654
-2.312,0.604,1.113,48.645,52.979,-42.969
-2.275,0.569,1.046,48.767,68.604,-56.824
-2.193,0.539,0.965,42.969,81.055,-72.693
-2.099,0.493,0.874,35.034,91.370,-90.393
-1.967,0.400,0.688,25.635,106.689,-110.229
-1.815,0.286,0.458,17.456,117.432,-130.005
-1.666,0.135,0.269,14.221,119.385,-147.949
-1.554,-0.108,0.147,19.470,119.446,-162.292
-1.437,-0.350,0.079,33.325,118.164,-168.701
-1.325,-0.573,0.054,50.232,117.371,-168.762
-1.205,-0.754,0.070,67.078,117.004,-166.016
-1.145,-0.940,0.154,83.069,116.333,-162.964
-1.061,-1.100,0.263,92.773,118.408,-161.255
-0.946,-1.255,0.302,93.018,122.925,-163.818
-0.827,-1.441,0.281,84.412,128.235,-168.213
-0.697,-1.626,0.201,74.463,133.301,-171.509
-0.521,-1.761,0.148,69.336,137.512,-170.471
-0.403,-1.822,0.144,71.655,141.907,-164.734
-0.261,-1.780,0.106,77.209,150.024,-154.358
-0.046,-1.776,-0.006,87.097,155.212,-145.081

0.551,-1.935,0.077,96.985,133.972,-121.460
0.753,-1.986,0.098,95.276,135.254,-113.037
0.893,-2.042,0.116,86.243,132.019,-106.628
1.056,-2.082,0.098,72.937,128.784,-102.051
1.317,-2.110,0.032,59.998,126.526,-95.825
1.592,-2.142,-0.005,50.903,118.530,-87.097
1.825,-2.175,-0.001,43.701,105.347,-73.425
2.005,-2.148,0.051,38.635,90.210,-53.284
2.147,-2.082,0.079,33.508,76.355,-31.006
2.238,-1.989,0.120,25.330,61.768,-10.498
2.313,-1.897,0.159,15.503,45.349,5.310
2.359,-1.844,0.182,2.441,27.588,16.968
2.343,-1.812,0.177,-15.320,8.972,25.818
2.267,-1.762,0.116,-35.217,-8.606,35.522
2.142,-1.727,0.011,-52.307,-22.949,47.729
1.962,-1.674,-0.079,-63.110,-38.452,63.782
1.741,-1.584,-0.134,-65.796,-56.763,83.801
1.504,-1.447,-0.135,-60.181,-75.867,106.506
1.242,-1.328,-0.076,-48.767,-94.299,127.808
0.963,-1.232,0.017,-40.161,-111.145,143.494
0.673,-1.138,0.122,-37.720,-124.084,151.489
0.427,-1.052,0.210,-39.124,-131.897,152.405
0.197,-1.007,0.246,-45.532,-136.230,147.949
-0.049,-0.988,0.268,-54.810,-140.137,141.846
-0.274,-0.964,0.300,-59.204,-143.250,136.292
-0.463,-0.952,0.338,-60.242,-144.409,132.019
-0.608,-0.950,0.354,-59.326,-146.179,129.272
-0.728,-0.964,0.375,-55.969,-148.132,130.493
-0.817,-0.957,0.451,-47.607,-151.001,136.230
-0.891,-0.889,0.577,-36.682,-150.635,144.104
-0.936,-0.777,0.713,-25.269,-143.127,150.818
-1.014,-0.689,0.781,-23.254,-132.080,151.001
-1.073,-0.630,0.743,-36.011,-122.009,142.700
-1.114,-0.611,0.620,-54.016,-111.450,125.000
-1.154,-0.693,0.439,-72.998,-103.394,104.614
-1.142,-0.790,0.301,-85.938,-103.088,90.088
-1.188,-0.870,0.301,-86.609,-108.521,86.182
-1.220,-0.902,0.360,-72.754,-109.924,94.849
-1.328,-0.853,0.457,-53.833,-99.670,110.596
-1.425,-0.717,0.539,-36.499,-84.778,126.770
-1.517,-0.534,0.604,-24.719,-72.327,136.902
-1.594,-0.353,0.655,-22.339,-65.247,138.428
-1.613,-0.193,0.697,-26.001,-55.298,131.775
-1.538,-0.078,0.790,-33.936,-48.218,118.408
-1.550,-0.030,0.829,-39.551,-43.884,101.990
-1.554,0.041,0.830,-46.387,-32.715,92.957
-1.557,0.135,0.818,-46.021,-19.348,89.478
-1.611,0.247,0.840,-43.884,-10.864,88.867
-1.706,0.351,0.913,-39.734,-9.766,87.280
-1.818,0.457,0.949,-28.442,-6.287,83.191
-1.880,0.578,0.973,-12.085,1.221,73.486
-1.927,0.642,1.038,0.549,5.249,56.274
-1.952,0.647,1.085,5.188,6.958,33.936
-1.973,0.577,1.124,7.507,8.057,10.498
-1.943,0.533,1.266,1.648,10.254,-10.132
-1.967,0.498,1.288,-1.465,20.325,-26.367
-1.964,0.475,1.182,-2.502,39.185,-40.100
-1.948,0.447,1.065,-3.235,54.810,-52.002
-1.909,0.401,0.943,-2.686,66.040,-64.026
-1.854,0.344,0.821,0.549,74.707,-75.989
-1.792,0.254,0.714,5.981,80.261,-87.280
-1.741,0.147,0.625,11.597,82.397,-97.778
-1.685,0.033,0.576,17.456,84.778,-107.422
-1.607,-0.075,0.540,23.254,87.463,-115.967
-1.545,-0.171,0.542,28.198,87.952,-123.352
-1.503,-0.242,0.591,33.691,89.783,-130.432
-1.412,-0.295,0.624,40.161,97.656,-138.611
-1.316,-0.359,0.625,42.786,106.995,-147.400
-1.229,-0.466,0.600,41.321,112.366,-156.555
-1.134,-0.593,0.548,39.978,116.028,-165.894
-0.970,-0.743,0.460,41.443,119.690,-174.011
-0.820,-0.929,0.398,43.762,119.385,-179.260
-0.682,-1.124,0.387,48.767,117.493,-183.105
-0.516,-1.318,0.371,56.213,120.605,-186.035
-0.334,-1.554,0.343,61.646,125.488,-188.049
-0.172,-1.766,0.308,60.974,128.357,-187.439
0.022,-1.964,0.201,57.556,130.310,-185.913
0.290,-2.074,0.105,58.899,130.493,-185.547
0.599,-2.150,0.076,50.232,126.404,-167.603
0.813,-2.173,0.083,55.237,120.117,-148.254
1.011,-2.155,0.107,63.416,117.798,-125.000
1.107,-2.097,0.153,69.519,114.197,-98.694
1.235,-1.969,0.191,69.946,111.694,-76.172
1.362,-1.845,0.224,61.646,107.544,-62.439
1.496,-1.769,0.235,47.974,98.145,-58.167
1.659,-1.727,0.223,32.227,85.815,-58.594
1.852,-1.748,0.224,16.968,69.458,-59.265
2.015,-1.836,0.244,2.747,48.828,-55.847
2.148,-1.908,0.270,-11.230,27.954,-44.067
2.238,-1.969,0.261,-19.836,12.573,-23.376
2.264,-1.989,0.225,-24.719,2.075,3.601
2.210,-1.924,0.146,-29.419,-7.751,33.020
2.073,-1.784,0.001,-36.865,-19.653,59.692
1.912,-1.646,-0.095,-42.969,-34.546,79.712
1.752,-1.525,-0.104,-44.434,-52.673,94.971
1.527,-1.419,-0.016,-41.992,-74.158,109.741
1.261,-1.353,0.114,-37.903,-90.149,125.305
0.980,-1.300,0.283,-35.095,-101.929,139.038
0.639,-1.204,0.394,-38.940,-111.023,148.132
0.348,-1.101,0.420,-45.227,-113.586,149.414
0.116,-1.074,0.420,-52.734,-117.554,141.357
-0.018,-1.107,0.422,-61.646,-123.962,128.662
-0.102,-1.201,0.473,-69.397,-129.272,118.652
-0.195,-1.295,0.517,-76.721,-131.226,116.821
-0.339,-1.308,0.496,-80.139,-126.160,125.549
-0.490,-1.234,0.433,-75.562,-115.295,139.587
-0.667,-1.118,0.397,-68.115,-109.192,152.710
-0.829,-0.995,0.397,-63.965,-107.422,161.072
-0.969,-0.874,0.405,-61.890,-106.750,163.330
-1.094,-0.749,0.421,-60.730,-105.103,159.790
-1.225,-0.641,0.436,-59.937,-101.624,152.100
-1.304,-0.565,0.452,-60.425,-97.717,141.357
-1.368,-0.553,0.451,-63.721,-96.313,128.967
-1.392,-0.497,0.542,-70.801,-94.727,120.361
-1.437,-0.440,0.555,-62.683,-89.722,114.563
-1.442,-0.344,0.577,-55.298,-77.576,113.342
-1.482,-0.240,0.622,-48.279,-72.510,112.671
-1.514,-0.135,0.693,-47.058,-71.350,112.183
-1.555,-0.044,0.774,-44.678,-68.604,111.389

-1.604,0.124,0.951,-35.156,-51.697,107.361
-1.634,0.221,1.011,-33.020,-38.208,104.553
-1.664,0.337,1.047,-33.508,-23.804,101.196
-1.680,0.474,1.049,-32.349,-9.216,94.299
-1.687,0.617,1.020,-30.273,2.441,83.923
-1.690,0.754,0.983,-26.123,10.437,69.519
-1.668,0.871,0.926,-16.907,14.893,50.476
-1.618,0.904,0.918,-7.446,14.221,27.832
-1.579,0.884,0.981,0.000,7.874,5.920
-1.555,0.843,1.070,9.888,4.517,-10.864
-1.543,0.768,1.136,20.996,10.010,-23.376
-1.562,0.671,1.151,27.954,17.151,-33.997
-1.575,0.624,1.161,25.024,24.414,-42.786
-1.610,0.583,1.097,23.254,35.400,-52.368
-1.613,0.495,0.996,22.339,46.509,-67.078
-1.591,0.370,0.913,19.592,54.688,-84.473
-1.562,0.246,0.817,16.602,60.181,-99.548
-1.549,0.120,0.723,17.395,64.392,-111.450
-1.529,-0.017,0.632,21.362,69.763,-120.422
-1.467,-0.144,0.578,27.405,71.655,-126.526
-1.432,-0.266,0.572,32.288,69.580,-129.944
-1.404,-0.394,0.593,36.255,69.946,-131.348
-1.400,-0.485,0.652,40.833,73.303,-131.836
-1.368,-0.565,0.733,45.349,81.177,-133.362
-1.325,-0.617,0.773,45.105,90.576,-136.841
-1.280,-0.652,0.762,42.603,97.900,-141.541
-1.193,-0.682,0.704,43.823,104.980,-148.193
-1.046,-0.744,0.643,47.485,110.840,-157.104
-0.912,-0.856,0.605,51.392,112.305,-167.664
-0.753,-1.022,0.618,55.847,110.657,-177.979
-0.559,-1.227,0.596,60.181,113.831,-185.120
-0.345,-1.432,0.551,60.303,120.117,-188.049
-0.139,-1.638,0.470,56.702,125.793,-186.157
0.094,-1.794,0.358,51.270,130.981,-179.260
0.333,-1.891,0.269,45.776,133.545,-168.335
0.539,-1.922,0.197,41.565,133.179,-151.917
0.698,-1.873,0.111,42.725,129.578,-133.606
0.883,-1.785,0.047,40.161,121.704,-113.525
1.010,-1.720,0.046,41.077,111.023,-96.008
1.118,-1.658,0.106,44.678,98.206,-80.750
1.261,-1.646,0.176,45.898,88.745,-68.420
1.371,-1.664,0.263,40.100,79.346,-60.181
1.484,-1.686,0.305,26.733,70.923,-54.138
1.600,-1.694,0.279,9.094,65.308,-48.584
1.712,-1.711,0.247,-6.287,57.434,-40.894
1.826,-1.702,0.234,-16.663,46.692,-29.480
1.917,-1.669,0.186,-22.827,36.560,-12.939
1.982,-1.625,0.095,-25.146,26.306,6.287
1.982,-1.575,0.036,-24.292,12.146,27.161
1.922,-1.506,0.009,-22.217,-3.052,46.753
1.825,-1.413,-0.026,-20.874,-18.311,64.026
1.687,-1.319,-0.042,-23.315,-36.072,75.806
1.553,-1.257,-0.023,-27.954,-56.213,81.909
1.409,-1.219,0.017,-34.485,-76.843,85.022
1.247,-1.207,0.053,-43.213,-94.666,88.074
1.088,-1.213,0.073,-51.086,-109.436,92.346
0.918,-1.253,0.084,-54.993,-122.742,99.243
0.741,-1.277,0.093,-57.495,-135.559,109.985
0.482,-1.279,0.171,-56.396,-148.437,121.826
0.237,-1.277,0.281,-53.467,-155.945,132.629
0.005,-1.225,0.389,-50.903,-158.020,142.944
-0.224,-1.158,0.490,-47.852,-155.212,150.208
-0.400,-1.100,0.559,-43.518,-147.217,153.809
-0.533,-1.023,0.624,-39.063,-138.733,155.396
-0.636,-0.955,0.657,-35.645,-130.371,156.555
-0.742,-0.913,0.672,-34.607,-120.789,156.250
-0.879,-0.868,0.692,-35.095,-112.610,155.457
-1.001,-0.817,0.707,-34.119,-104.126,154.968
-1.089,-0.757,0.692,-31.067,-94.421,153.992
-1.167,-0.709,0.667,-28.015,-87.891,150.269
-1.230,-0.653,0.642,-30.823,-85.083,144.104
-1.319,-0.615,0.579,-35.645,-85.144,135.498
-1.378,-0.611,0.505,-40.955,-86.121,127.686
-1.389,-0.573,0.512,-39.429,-89.539,122.070
-1.426,-0.546,0.574,-34.302,-92.163,120.422
-1.474,-0.466,0.681,-28.381,-92.041,124.023
-1.547,-0.358,0.769,-20.996,-86.548,130.066
-1.637,-0.235,0.831,-12.207,-76.782,132.935
-1.736,-0.071,0.902,-6.226,-65.552,133.728
-1.806,0.104,0.972,-2.808,-52.612,131.348
-1.845,0.256,1.017,2.136,-40.955,120.911
-1.865,0.386,1.032,-2.441,-33.997,103.760
-1.877,0.495,1.059,-12.695,-31.799,82.092
-1.866,0.548,1.091,-20.874,-28.137,59.937
-1.843,0.581,1.127,-22.827,-23.437,39.429
-1.824,0.603,1.157,-19.958,-17.517,23.804
-1.811,0.612,1.194,-12.878,-10.498,12.878
-1.808,0.612,1.236,-2.319,-3.052,4.578
-1.785,0.589,1.232,7.385,7.935,-3.601
-1.760,0.602,1.245,10.071,20.447,-14.526
-1.751,0.576,1.196,10.864,31.311,-28.076
-1.713,0.526,1.129,10.681,43.213,-45.044
-1.682,0.449,1.057,7.568,53.223,-62.927
-1.632,0.351,0.971,3.784,61.768,-80.139
-1.591,0.239,0.864,1.038,69.336,-94.727
-1.553,0.116,0.749,1.526,74.707,-105.408
-1.493,0.006,0.649,3.052,77.271,-113.037
-1.450,-0.072,0.610,5.371,75.623,-118.408
-1.415,-0.143,0.602,13.000,76.477,-121.765
-1.374,-0.209,0.617,21.606,81.909,-125.671
-1.331,-0.272,0.650,26.733,86.792,-130.981
-1.287,-0.345,0.679,28.748,91.064,-137.817
-1.234,-0.436,0.701,28.931,96.863,-145.386
-1.176,-0.545,0.707,30.823,102.905,-151.917
-1.112,-0.651,0.705,35.278,109.192,-155.701
-1.027,-0.734,0.669,40.344,117.065,-155.579
-0.920,-0.824,0.611,42.664,122.620,-155.396
-0.829,-0.936,0.551,42.664,123.840,-157.532
-0.696,-1.075,0.481,42.786,125.061,-161.377
-0.502,-1.216,0.404,42.786,125.977,-167.419
-0.265,-1.391,0.351,43.945,123.169,-174.194
-0.030,-1.598,0.318,44.373,118.835,-177.673
0.220,-1.799,0.282,44.312,117.004,-175.110
0.459,-1.952,0.254,42.053,116.272,-166.321
0.673,-2.002,0.202,36.926,116.577,-150.818
0.872,-1.958,0.140,34.668,118.103,-129.883
1.039,-1.864,0.098,36.133,114.868,-105.408
1.137,-1.722,0.120,38.513,109.009,-79.285
1.246,-1.586,0.141,45.532,104.370,-57.800

1.386,-1.446,0.245,45.532,83.130,-34.180
1.489,-1.434,0.316,31.982,70.984,-34.241
1.620,-1.463,0.344,11.108,60.913,-37.720
1.786,-1.537,0.292,-7.996,54.993,-40.649
2.012,-1.659,0.220,-18.127,47.180,-38.574
2.184,-1.824,0.131,-24.841,34.668,-25.635
2.257,-1.939,0.030,-27.832,23.499,0.244
2.219,-1.955,-0.061,-24.597,13.550,36.682
2.100,-1.849,-0.116,-20.264,1.038,74.097
1.910,-1.658,-0.152,-17.822,-14.526,104.431
1.695,-1.456,-0.156,-16.235,-35.645,125.000
1.459,-1.285,-0.113,-18.311,-58.655,134.888
1.235,-1.201,-0.067,-25.635,-81.726,135.803
0.998,-1.170,-0.003,-36.194,-103.271,131.897
0.773,-1.184,0.051,-44.189,-120.361,127.441
0.532,-1.238,0.156,-45.593,-133.179,127.136
0.284,-1.289,0.322,-40.649,-145.142,132.751
0.010,-1.286,0.501,-33.508,-152.832,143.677
-0.242,-1.235,0.636,-28.259,-150.574,155.579
-0.480,-1.135,0.714,-26.978,-144.226,163.086
-0.676,-1.044,0.724,-29.968,-135.559,163.757
-0.825,-0.972,0.704,-35.095,-127.258,158.264
-0.948,-0.917,0.674,-41.626,-123.169,149.475
-1.045,-0.896,0.667,-46.936,-121.704,141.174
-1.113,-0.860,0.683,-48.523,-120.728,137.329
-1.184,-0.799,0.718,-46.936,-119.446,137.207
-1.270,-0.726,0.722,-44.006,-114.624,139.404
-1.318,-0.626,0.698,-41.138,-108.093,139.954
-1.340,-0.554,0.677,-40.771,-105.286,136.841
-1.359,-0.505,0.679,-42.969,-106.201,130.981
-1.371,-0.489,0.696,-44.312,-105.896,125.610
-1.413,-0.422,0.738,-47.302,-104.065,122.864
-1.483,-0.324,0.771,-46.814,-100.220,122.925
-1.524,-0.198,0.802,-41.138,-85.876,123.779
-1.552,-0.056,0.820,-32.043,-67.810,125.732
-1.579,0.103,0.842,-22.156,-54.993,124.512
-1.609,0.256,0.880,-19.043,-45.837,118.469
-1.626,0.384,0.922,-21.484,-39.917,107.422
-1.640,0.480,0.974,-24.963,-34.790,90.637
-1.628,0.542,1.005,-26.978,-28.748,72.388
-1.614,0.568,1.038,-25.085,-21.484,55.420
-1.607,0.568,1.066,-19.897,-13.489,41.443
-1.644,0.596,1.084,-14.160,-5.676,31.494
-1.659,0.646,1.058,-6.592,4.395,23.499
-1.640,0.681,1.019,0.977,12.207,14.465
-1.668,0.708,1.021,5.249,16.479,0.793
-1.661,0.677,1.030,6.836,18.982,-15.198
-1.632,0.609,1.030,7.507,24.048,-33.630
-1.575,0.531,1.009,7.751,32.227,-50.659
-1.503,0.461,0.984,8.057,40.039,-65.186
-1.450,0.396,0.968,8.789,47.546,-76.904
-1.406,0.337,0.930,10.193,56.641,-86.243
-1.365,0.281,0.868,11.169,66.101,-95.154
-1.340,0.209,0.803,13.062,72.205,-104.797
-1.326,0.116,0.753,15.381,74.402,-114.807
-1.318,0.016,0.731,18.433,73.914,-124.390
-1.303,-0.102,0.738,24.597,73.669,-134.216
-1.279,-0.222,0.753,30.640,74.341,-143.311
-1.262,-0.321,0.797,35.095,75.012,-150.208
-1.232,-0.437,0.837,39.368,78.369,-156.372
-1.173,-0.553,0.852,42.358,82.642,-161.682
-1.128,-0.666,0.840,40.771,87.036,-166.260
-1.078,-0.782,0.804,37.109,93.506,-171.021
-1.010,-0.893,0.747,35.828,100.342,-174.255
-0.909,-0.984,0.699,37.537,106.445,-175.964
-0.797,-1.069,0.647,41.199,111.633,-175.293
-0.686,-1.165,0.618,47.058,114.807,-172.302
-0.575,-1.269,0.626,54.626,115.967,-168.152
-0.449,-1.359,0.640,60.120,117.615,-162.842
-0.279,-1.448,0.640,62.744,121.094,-157.593
-0.109,-1.552,0.630,61.707,122.925,-151.550
0.071,-1.647,0.594,58.411,124.268,-143.982
0.257,-1.755,0.548,53.467,126.343,-135.193
0.460,-1.841,0.493,46.753,128.479,-124.939
0.675,-1.864,0.416,40.405,129.822,-113.159
0.906,-1.832,0.314,34.180,132.446,-100.037
1.108,-1.789,0.188,28.870,133.850,-86.121
1.283,-1.716,0.033,26.367,132.263,-73.059
1.490,-1.645,-0.138,24.353,128.052,-61.523
1.690,-1.608,-0.270,21.484,113.586,-52.246
1.845,-1.601,-0.339,15.503,88.684,-42.786
1.973,-1.599,-0.348,9.094,59.875,-29.968
2.064,-1.585,-0.263,5.005,30.151,-14.221
2.097,-1.547,-0.151,3.296,5.371,2.930
2.078,-1.487,-0.065,-0.854,-10.986,20.752
1.999,-1.410,-0.047,-11.230,-23.987,36.438
1.863,-1.324,-0.085,-25.818,-37.903,48.340
1.716,-1.252,-0.139,-38.391,-51.819,57.800
1.568,-1.190,-0.180,-45.105,-65.979,67.688
1.427,-1.139,-0.190,-45.166,-81.116,78.430
1.279,-1.102,-0.156,-40.955,-96.985,89.050
1.109,-1.067,-0.095,-36.499,-112.488,99.060
0.932,-1.055,-0.016,-31.372,-124.329,106.750
0.741,-1.087,0.061,-29.480,-133.423,111.084
0.526,-1.123,0.146,-31.128,-142.212,114.502
0.317,-1.177,0.211,-33.386,-147.766,119.080
0.099,-1.219,0.284,-36.316,-152.771,127.014
-0.151,-1.230,0.374,-38.025,-156.799,138.306
-0.385,-1.204,0.475,-34.912,-155.029,150.757
-0.600,-1.154,0.577,-29.602,-151.611,161.804
-0.806,-1.091,0.661,-28.015,-147.522,169.312
-0.975,-1.016,0.715,-29.846,-140.930,171.814
-1.130,-0.972,0.784,-32.227,-133.972,169.922
-1.250,-0.936,0.843,-34.729,-126.282,165.344
-1.338,-0.891,0.894,-36.804,-118.408,160.278
-1.382,-0.837,0.915,-38.330,-110.657,154.846
-1.393,-0.792,0.923,-40.710,-103.516,147.705
-1.471,-0.724,0.932,-50.354,-97.229,141.479
-1.509,-0.659,0.843,-52.551,-90.454,138.672
-1.483,-0.578,0.793,-52.185,-80.017,135.132
-1.497,-0.498,0.775,-50.232,-76.172,134.399
-1.528,-0.404,0.786,-42.542,-74.646,134.949
-1.593,-0.285,0.816,-30.151,-70.557,134.033
-1.653,-0.135,0.889,-23.376,-64.209,132.812
-1.727,0.009,0.976,-18.250,-56.885,128.967
-1.770,0.132,1.042,-12.390,-45.471,119.324
-1.815,0.247,1.072,-10.071,-32.715,106.445
-1.821,0.376,1.098,-13.672,-24.109,91.187
-1.801,0.499,1.117,-23.315,-20.813,73.547

-1.729,0.639,1.145,-35.889,-14.221,33.020
-1.690,0.670,1.140,-34.363,-7.141,16.724
-1.668,0.690,1.118,-27.649,1.831,3.784
-1.660,0.692,1.124,-16.357,11.963,-6.409
-1.623,0.685,1.161,-3.479,21.973,-15.686
-1.630,0.647,1.163,7.141,31.921,-26.123
-1.595,0.594,1.123,9.705,41.138,-36.011
-1.550,0.547,1.045,10.437,50.110,-47.668
-1.493,0.490,0.946,9.705,59.265,-59.875
-1.426,0.423,0.835,8.057,66.833,-73.242
-1.357,0.333,0.740,7.385,73.242,-86.304
-1.291,0.228,0.673,8.301,77.698,-97.351
-1.233,0.136,0.629,11.719,81.177,-104.858
-1.195,0.050,0.579,15.320,86.121,-109.985
-1.172,-0.025,0.531,18.555,90.576,-113.831
-1.152,-0.096,0.512,23.682,92.224,-119.080
-1.131,-0.192,0.515,28.198,92.896,-125.305
-1.120,-0.305,0.533,32.532,92.651,-132.263
-1.076,-0.403,0.588,36.987,90.942,-139.954
-1.051,-0.514,0.640,39.429,91.064,-148.315
-0.995,-0.648,0.649,40.710,95.642,-156.494
-0.934,-0.778,0.636,41.443,99.365,-163.208
-0.840,-0.906,0.587,41.565,101.318,-168.335
-0.727,-1.037,0.566,43.457,99.670,-170.776
-0.613,-1.181,0.586,50.049,96.558,-170.898
-0.497,-1.346,0.600,58.594,97.656,-168.457
-0.380,-1.490,0.601,63.965,102.539,-163.147
-0.259,-1.603,0.579,65.002,107.910,-155.212
-0.131,-1.651,0.517,61.890,114.258,-144.958
0.055,-1.636,0.448,58.838,119.812,-135.132
0.274,-1.624,0.420,57.190,119.751,-127.869
0.465,-1.635,0.416,54.688,115.662,-121.887
0.674,-1.670,0.384,50.171,114.319,-116.699
0.880,-1.731,0.308,41.260,113.159,-110.901
1.076,-1.787,0.199,28.992,107.361,-102.600
1.290,-1.838,0.088,19.409,101.074,-91.431
1.474,-1.859,0.038,15.381,92.896,-76.111
1.613,-1.816,0.045,15.442,81.970,-54.871
1.720,-1.711,0.054,13.489,71.594,-31.555
1.776,-1.581,0.054,6.348,57.983,-11.292
1.793,-1.446,0.055,-2.625,41.260,4.456
1.784,-1.323,0.056,-8.240,25.146,17.029
1.762,-1.232,0.071,-12.451,9.705,25.940
1.697,-1.164,0.092,-19.714,-7.080,33.203
1.601,-1.131,0.104,-28.687,-23.437,40.344
1.468,-1.115,0.128,-36.438,-39.734,48.828
1.300,-1.092,0.177,-40.955,-55.054,58.838
1.119,-1.055,0.230,-40.710,-67.139,69.824
0.954,-1.016,0.264,-38.147,-76.782,79.773
0.803,-0.980,0.307,-35.583,-86.731,87.402
0.673,-0.990,0.351,-34.607,-96.436,91.492
0.553,-1.026,0.397,-34.546,-105.286,93.933
0.442,-1.076,0.445,-34.241,-111.755,96.497
0.351,-1.143,0.493,-34.424,-114.990,99.548
0.253,-1.197,0.532,-35.645,-115.601,104.248
0.154,-1.232,0.560,-37.170,-113.037,111.572
0.062,-1.250,0.560,-38.086,-107.788,119.568
-0.032,-1.244,0.540,-39.368,-103.394,126.892
-0.139,-1.238,0.514,-39.978,-99.670,134.155
-0.221,-1.208,0.518,-37.415,-97.351,142.151
-0.308,-1.181,0.509,-34.973,-94.482,149.353
-0.391,-1.134,0.491,-35.278,-92.957,155.273
-0.488,-1.081,0.451,-37.415,-92.957,161.011
-0.635,-1.011,0.410,-39.978,-94.360,168.762
-0.799,-0.925,0.409,-38.025,-98.389,177.002
-0.977,-0.844,0.454,-29.846,-103.027,182.922
-1.155,-0.758,0.557,-20.996,-106.750,185.242
-1.276,-0.651,0.665,-12.390,-105.652,183.655
-1.343,-0.530,0.759,-7.874,-101.746,177.856
-1.386,-0.407,0.802,-10.742,-96.680,168.030
-1.417,-0.273,0.799,-20.020,-90.881,153.625
-1.454,-0.163,0.753,-29.541,-88.623,137.207
-1.478,-0.076,0.750,-38.757,-89.050,122.803
-1.520,-0.028,0.786,-40.405,-88.074,110.413
-1.561,0.005,0.849,-35.522,-84.839,101.563
-1.663,0.062,0.925,-26.794,-79.895,96.802
-1.758,0.173,1.006,-18.066,-72.021,95.154
-1.818,0.295,1.074,-11.658,-63.171,90.698
-1.862,0.405,1.133,-7.385,-56.152,78.918
-1.871,0.495,1.179,-8.362,-49.683,61.890
-1.858,0.549,1.216,-12.085,-42.419,42.480
-1.847,0.577,1.242,-15.564,-33.020,23.010
-1.834,0.577,1.261,-14.954,-19.897,5.981
-1.824,0.578,1.269,-8.850,-5.310,-5.188
-1.820,0.564,1.241,1.953,9.705,-13.916
-1.777,0.565,1.220,8.057,23.865,-20.996
-1.766,0.563,1.180,14.465,35.645,-28.870
-1.723,0.550,1.099,19.287,50.110,-39.185
-1.679,0.509,1.009,20.264,62.012,-52.795
-1.627,0.434,0.913,16.235,69.824,-69.519
-1.548,0.336,0.822,9.583,73.486,-87.402
-1.475,0.212,0.724,3.113,76.599,-103.149
-1.420,0.089,0.632,1.404,81.726,-114.197
-1.375,-0.021,0.542,7.935,87.708,-119.080
-1.338,-0.104,0.489,20.142,92.529,-120.117
-1.294,-0.175,0.470,32.532,95.398,-120.544
-1.257,-0.247,0.469,40.833,96.558,-122.620
-1.202,-0.331,0.488,46.387,97.839,-127.686
-1.130,-0.425,0.535,48.645,99.182,-134.827
-1.091,-0.558,0.591,48.218,100.403,-143.433
-1.061,-0.702,0.638,47.302,103.882,-150.330
-1.002,-0.837,0.660,48.096,110.718,-155.029
-0.951,-0.962,0.633,46.875,118.225,-156.372
-0.878,-1.072,0.588,44.495,124.146,-155.884
-0.797,-1.180,0.538,44.556,128.296,-155.090
-0.683,-1.283,0.478,46.448,133.301,-154.724
-0.533,-1.375,0.406,46.814,134.827,-154.602
-0.369,-1.464,0.336,46.326,131.958,-153.564
-0.190,-1.535,0.303,46.753,128.479,-151.001
-0.026,-1.659,0.261,51.025,125.916,-148.071
0.134,-1.752,0.244,53.284,123.413,-143.188
0.317,-1.830,0.234,46.631,122.498,-128.113
0.510,-1.828,0.245,44.739,120.728,-114.807
0.712,-1.802,0.296,43.701,116.272,-99.182
0.872,-1.771,0.363,42.786,112.549,-82.031
1.039,-1.725,0.415,40.222,113.647,-64.514
1.158,-1.671,0.444,32.959,116.150,-48.279
1.277,-1.596,0.422,21.057,123.657,-34.546
1.418,-1.513,0.340,9.216,133.057,-24.536

1.773,-1.396,0.179,-4.639,125.244,-13.245
1.919,-1.385,0.148,-5.249,111.206,-8.728
2.048,-1.384,0.047,-7.751,94.238,-3.418
2.104,-1.361,-0.040,-13.855,70.679,2.075
2.111,-1.350,-0.159,-23.254,44.922,7.141
2.121,-1.361,-0.241,-34.302,18.677,12.817
2.073,-1.386,-0.244,-41.687,-11.597,21.912
1.983,-1.410,-0.196,-41.687,-35.461,36.499
1.823,-1.386,-0.146,-37.354,-52.612,56.824
1.609,-1.318,-0.109,-31.616,-68.115,78.979
1.384,-1.232,-0.091,-28.137,-80.750,98.145
1.138,-1.144,-0.058,-24.536,-92.346,111.694
0.932,-1.060,0.014,-20.752,-105.103,117.798
0.752,-1.019,0.123,-20.203,-119.080,117.676
0.597,-1.021,0.226,-24.780,-131.287,113.770
0.447,-1.053,0.286,-33.569,-140.198,109.436
0.288,-1.088,0.325,-42.725,-145.508,108.398
0.110,-1.099,0.364,-46.082,-146.851,111.206
-0.042,-1.102,0.389,-43.213,-141.418,117.493
-0.192,-1.090,0.428,-39.978,-137.512,126.526
-0.366,-1.043,0.481,-37.231,-139.282,136.597
-0.524,-0.980,0.509,-35.645,-137.024,144.531
-0.645,-0.912,0.507,-35.950,-132.568,148.499
-0.747,-0.850,0.486,-39.673,-130.859,148.499
-0.866,-0.810,0.478,-43.335,-130.981,145.447
-1.013,-0.770,0.504,-42.297,-130.737,142.578
-1.130,-0.708,0.571,-32.288,-127.625,141.418
-1.221,-0.635,0.662,-18.677,-121.094,139.893
-1.271,-0.567,0.773,-7.019,-111.572,136.169
-1.317,-0.505,0.886,-5.249,-101.624,131.042
-1.319,-0.450,0.929,-10.132,-96.436,126.587
-1.354,-0.380,0.950,-22.583,-90.576,123.474
-1.420,-0.302,0.944,-31.067,-79.956,121.521
-1.438,-0.190,0.926,-33.875,-66.162,120.972
-1.532,-0.077,0.909,-30.029,-55.725,119.507
-1.612,0.043,0.882,-26.611,-43.091,116.821
-1.621,0.159,0.849,-23.743,-32.166,113.037
-1.634,0.245,0.822,-16.541,-30.579,103.027
-1.630,0.310,0.839,-8.911,-32.959,89.050
-1.630,0.335,0.887,-2.563,-34.973,75.867
-1.627,0.340,0.991,3.906,-37.842,61.890
-1.623,0.331,1.132,9.094,-37.903,48.157
-1.623,0.329,1.258,12.207,-34.119,36.499
-1.636,0.344,1.345,13.306,-24.292,27.588
-1.646,0.353,1.355,13.550,-7.874,16.907
-1.634,0.378,1.370,7.568,6.531,4.272
-1.616,0.382,1.349,2.014,16.724,-9.705
-1.591,0.350,1.312,-1.282,25.818,-25.513
-1.577,0.312,1.255,-4.883,33.936,-40.039
-1.530,0.266,1.173,-6.592,43.884,-54.260
-1.473,0.202,1.100,-5.676,50.903,-66.528
-1.422,0.137,1.043,-3.357,53.528,-76.111
-1.371,0.059,0.969,-0.732,57.190,-83.862
-1.319,-0.019,0.877,-0.122,62.012,-91.003
-1.254,-0.105,0.784,-1.709,62.744,-97.595
-1.212,-0.177,0.707,-4.150,59.753,-104.187
-1.153,-0.248,0.633,-2.686,59.753,-111.145
-1.077,-0.315,0.577,1.831,62.378,-118.042
-0.991,-0.384,0.556,7.324,64.880,-122.803
-0.920,-0.461,0.558,14.709,68.909,-123.657
-0.859,-0.520,0.579,26.367,76.538,-120.056
-0.797,-0.576,0.610,42.114,86.609,-114.136
-0.748,-0.602,0.663,54.382,96.680,-108.398
-0.733,-0.616,0.722,56.213,105.957,-107.117
-0.713,-0.664,0.722,47.974,112.244,-114.807
-0.668,-0.747,0.655,34.424,113.647,-130.554
-0.569,-0.885,0.594,22.705,108.704,-148.560
-0.401,-1.039,0.538,18.127,99.487,-162.842
-0.228,-1.220,0.520,21.240,90.271,-170.349
-0.038,-1.398,0.493,29.053,86.975,-168.518
0.136,-1.520,0.475,36.377,85.754,-158.630
0.285,-1.572,0.477,39.551,83.618,-144.104
0.457,-1.537,0.456,38.513,84.106,-129.822
0.638,-1.462,0.414,37.537,85.449,-118.652
0.819,-1.412,0.391,35.278,82.336,-109.802
0.972,-1.433,0.423,33.081,74.280,-104.431
1.137,-1.514,0.423,28.992,66.406,-99.487
1.307,-1.613,0.372,21.851,61.707,-92.590
1.483,-1.693,0.316,15.503,58.228,-81.421
1.652,-1.733,0.274,12.573,53.894,-65.063
1.799,-1.740,0.298,12.451,43.945,-45.471
1.904,-1.703,0.367,9.399,31.006,-24.963
1.956,-1.660,0.414,4.150,18.433,-4.822
1.955,-1.633,0.412,-5.493,9.216,14.648
1.907,-1.572,0.341,-17.822,1.343,34.180
1.844,-1.492,0.238,-29.358,-6.897,53.101
1.754,-1.423,0.128,-36.377,-18.616,71.289
1.611,-1.318,0.080,-37.048,-31.677,89.844
1.436,-1.184,0.113,-32.715,-44.373,106.506
1.236,-1.085,0.170,-27.405,-55.847,118.774
1.060,-1.015,0.215,-24.170,-69.885,124.939
0.917,-0.982,0.256,-25.757,-86.060,125.732
0.794,-0.999,0.289,-30.945,-98.999,122.681
0.690,-1.063,0.346,-35.400,-109.863,119.751
0.577,-1.148,0.401,-39.063,-116.516,120.911
0.431,-1.206,0.444,-41.504,-118.103,128.418
0.257,-1.204,0.479,-41.931,-115.662,140.259
0.060,-1.171,0.484,-41.748,-111.023,152.588
-0.125,-1.100,0.482,-42.114,-106.323,162.354
-0.293,-1.012,0.484,-41.016,-102.112,167.297
-0.455,-0.962,0.462,-38.574,-96.985,167.908
-0.619,-0.910,0.468,-35.889,-94.055,166.138
-0.779,-0.860,0.505,-31.555,-92.529,164.062
-0.937,-0.802,0.568,-25.085,-90.027,162.476
-1.047,-0.722,0.641,-17.822,-86.853,160.095
-1.129,-0.645,0.699,-13.672,-84.106,155.090
-1.202,-0.578,0.736,-14.160,-81.970,147.583
-1.226,-0.516,0.779,-13.733,-79.285,139.282
-1.289,-0.462,0.856,-14.465,-77.148,130.859
-1.377,-0.454,0.895,-17.456,-75.745,125.793
-1.441,-0.398,0.932,-20.203,-70.007,121.704
-1.542,-0.327,0.968,-21.118,-62.134,118.164
-1.626,-0.240,0.978,-19.897,-53.528,112.244
-1.672,-0.151,0.995,-19.043,-44.678,105.225
-1.697,-0.067,1.033,-16.235,-37.781,95.581
-1.675,-0.007,1.078,-13.367,-30.518,85.022
-1.668,0.027,1.113,-9.216,-22.339,74.829
-1.655,0.078,1.141,-5.859,-13.062,66.345
-1.653,0.141,1.169,-6.653,-5.737,58.960

-1.659,0.270,1.195,-16.296,6.409,38.696
-1.644,0.336,1.180,-21.301,11.902,26.367
-1.623,0.384,1.126,-22.766,17.761,13.062
-1.595,0.424,1.052,-22.400,23.987,0.549
-1.557,0.454,0.980,-17.822,26.611,-11.414
-1.523,0.449,0.961,-9.521,26.550,-24.902
-1.479,0.388,0.978,0.427,29.053,-39.063
-1.434,0.303,0.995,8.362,34.363,-51.819
-1.386,0.195,0.985,12.268,40.222,-62.805
-1.369,0.098,0.976,10.254,46.143,-71.350
-1.360,0.014,0.937,8.484,55.603,-79.407
-1.320,-0.074,0.864,9.094,69.031,-88.867
-1.265,-0.150,0.789,7.996,77.271,-99.121
-1.207,-0.210,0.722,4.333,78.979,-110.107
-1.150,-0.263,0.673,3.418,80.688,-121.338
-1.066,-0.328,0.653,9.155,87.830,-131.653
-0.973,-0.394,0.630,16.418,93.689,-139.221
-0.939,-0.458,0.665,20.508,93.079,-144.836
-0.912,-0.532,0.730,22.827,92.163,-150.146
-0.846,-0.624,0.733,25.574,95.581,-155.396
-0.748,-0.714,0.729,25.940,94.727,-160.400
-0.655,-0.809,0.724,25.696,88.623,-164.246
-0.541,-0.959,0.707,25.513,86.914,-167.297
-0.411,-1.125,0.687,26.306,85.876,-167.114
-0.275,-1.237,0.668,25.330,84.412,-163.208
-0.168,-1.320,0.616,23.804,87.708,-156.860
-0.060,-1.369,0.538,24.841,97.717,-147.949
0.075,-1.323,0.463,27.466,105.896,-136.841
0.216,-1.253,0.443,31.250,105.103,-127.258
0.326,-1.227,0.459,35.828,99.365,-123.474
0.463,-1.271,0.486,40.771,95.520,-125.000
0.624,-1.385,0.503,42.847,93.811,-130.005
0.836,-1.535,0.474,35.950,90.332,-135.193
1.059,-1.683,0.403,23.071,85.083,-135.193
1.313,-1.797,0.315,11.108,77.148,-124.634
1.509,-1.831,0.279,4.089,67.078,-103.271
1.621,-1.758,0.253,4.761,63.416,-72.571
1.682,-1.596,0.222,10.132,66.101,-38.696
1.682,-1.424,0.217,13.672,59.753,-11.414
1.670,-1.293,0.225,12.756,45.715,3.967
1.696,-1.228,0.249,9.216,30.640,10.864
1.710,-1.213,0.281,1.343,14.221,13.672
1.710,-1.231,0.270,-10.193,-0.305,14.893
1.698,-1.247,0.204,-22.766,-11.169,19.165
1.643,-1.242,0.166,-33.203,-24.963,29.602
1.531,-1.200,0.180,-38.330,-38.330,47.180
1.384,-1.127,0.228,-35.889,-46.509,68.359
1.215,-1.068,0.289,-28.320,-52.490,87.280
1.043,-1.021,0.346,-21.729,-60.608,101.013
0.891,-1.005,0.417,-18.250,-69.031,108.459
0.765,-0.998,0.474,-19.287,-74.463,110.107
0.682,-0.999,0.480,-22.644,-77.881,108.154
0.622,-1.046,0.459,-26.733,-81.848,106.262
0.534,-1.104,0.460,-30.701,-88.196,107.971
0.392,-1.158,0.477,-31.677,-91.675,113.953
0.254,-1.181,0.471,-30.762,-89.050,122.864
0.113,-1.174,0.434,-32.104,-87.402,132.019
-0.054,-1.129,0.416,-34.851,-90.027,139.221
-0.205,-1.043,0.438,-35.095,-91.492,145.264
-0.358,-0.956,0.461,-30.273,-88.562,149.780
-0.493,-0.847,0.495,-22.278,-84.656,152.527
-0.642,-0.753,0.542,-16.357,-83.374,153.564
-0.781,-0.658,0.612,-10.254,-82.336,152.527
-0.894,-0.564,0.682,-2.014,-79.407,149.536
-0.974,-0.486,0.738,2.441,-77.637,143.555
-1.044,-0.408,0.822,4.272,-79.529,134.277
-1.104,-0.369,0.876,3.418,-79.163,122.009
-1.112,-0.333,0.931,-4.150,-75.134,109.680
-1.133,-0.306,0.937,-10.925,-72.937,97.412
-1.153,-0.330,0.897,-23.315,-67.200,89.233
-1.183,-0.381,0.852,-32.532,-61.462,83.008
-1.205,-0.401,0.826,-38.208,-57.983,80.505
-1.226,-0.402,0.802,-37.964,-54.260,81.238
-1.231,-0.379,0.783,-32.715,-49.377,84.106
-1.252,-0.335,0.778,-22.217,-46.265,87.463
-1.296,-0.249,0.819,-10.742,-45.410,91.003
-1.338,-0.162,0.913,0.244,-42.603,91.675
-1.392,-0.083,1.014,6.836,-36.804,86.853
-1.428,-0.009,1.103,5.798,-31.067,78.369
-1.461,0.065,1.167,0.122,-25.024,67.810
-1.473,0.158,1.201,-5.188,-15.869,55.420
-1.443,0.253,1.205,-8.423,-6.409,42.419
-1.411,0.330,1.198,-11.108,1.953,29.297
-1.385,0.380,1.185,-10.864,9.521,17.273
-1.360,0.400,1.137,-7.019,15.991,7.080
-1.350,0.446,1.135,-4.028,20.996,-1.465
-1.365,0.460,1.107,0.977,25.269,-9.888
-1.341,0.425,1.050,5.432,31.006,-22.400
-1.329,0.358,0.995,4.761,34.241,-35.889
-1.332,0.293,0.953,2.563,36.316,-49.438
-1.320,0.213,0.916,2.136,41.199,-62.805
-1.293,0.130,0.898,2.625,45.593,-75.806
-1.275,0.039,0.881,1.709,49.072,-87.097
-1.255,-0.052,0.841,0.549,54.260,-96.680
-1.220,-0.155,0.810,2.625,60.608,-104.065
-1.173,-0.239,0.802,7.629,65.247,-108.521
-1.149,-0.314,0.809,14.343,69.946,-111.328
-1.109,-0.377,0.811,20.508,77.515,-114.075
-1.057,-0.443,0.813,24.658,84.656,-119.080
-1.027,-0.522,0.830,24.963,86.365,-124.878
-0.968,-0.614,0.824,22.156,87.769,-131.531
-0.871,-0.704,0.802,20.752,91.919,-137.939
-0.796,-0.778,0.800,20.508,96.130,-142.212
-0.696,-0.832,0.744,20.325,104.248,-144.470
-0.564,-0.859,0.637,19.226,113.281,-146.057
-0.504,-0.864,0.553,18.433,117.249,-146.790
-0.403,-0.868,0.456,21.606,122.009,-147.888
-0.296,-0.887,0.381,26.978,121.155,-150.513
-0.235,-0.932,0.360,32.227,110.474,-153.625
-0.156,-1.004,0.381,41.626,100.830,-156.799
-0.026,-1.103,0.410,53.833,95.215,-159.363
0.113,-1.209,0.506,61.401,86.731,-159.363
0.223,-1.393,0.597,66.650,78.430,-158.203
0.364,-1.556,0.638,64.880,78.003,-153.748
0.516,-1.684,0.615,53.955,83.618,-142.578
0.679,-1.738,0.539,42.419,90.210,-130.127
0.865,-1.704,0.456,30.029,95.215,-114.746
1.047,-1.653,0.371,20.630,96.558,-97.656
1.218,-1.585,0.286,15.869,94.604,-81.787

1.598,-1.580,0.111,12.085,82.092,-58.716
1.754,-1.647,0.059,9.033,69.214,-48.096
1.889,-1.693,0.007,6.165,56.885,-35.461
2.003,-1.697,-0.037,2.747,44.678,-19.287
2.063,-1.654,-0.041,0.366,29.907,-0.977
2.063,-1.598,-0.009,-2.563,14.587,18.311
2.017,-1.528,0.023,-6.653,0.793,36.377
1.924,-1.467,0.037,-13.367,-10.742,52.246
1.799,-1.407,-0.001,-23.560,-18.677,65.552
1.650,-1.345,-0.069,-32.349,-27.344,77.087
1.476,-1.267,-0.124,-36.682,-42.603,87.402
1.298,-1.200,-0.114,-35.278,-60.547,96.497
1.125,-1.143,-0.036,-29.297,-79.529,105.591
0.940,-1.085,0.060,-23.621,-96.863,113.281
0.751,-1.033,0.142,-20.996,-107.544,118.530
0.589,-0.983,0.224,-17.761,-115.845,122.314
0.450,-0.984,0.318,-17.639,-123.840,123.108
0.312,-1.023,0.414,-23.376,-130.554,123.047
0.162,-1.076,0.489,-31.921,-131.714,124.817
0.002,-1.115,0.520,-38.574,-127.258,129.272
-0.186,-1.139,0.508,-42.419,-120.728,135.498
-0.365,-1.124,0.453,-41.504,-112.976,141.968
-0.490,-1.086,0.425,-35.339,-107.605,146.301
-0.595,-1.042,0.447,-27.527,-108.215,148.682
-0.677,-0.983,0.493,-20.081,-109.009,149.475
-0.755,-0.910,0.540,-12.512,-103.821,149.353
-0.850,-0.806,0.568,-8.118,-96.863,149.170
-0.964,-0.660,0.589,-7.385,-92.346,146.606
-1.048,-0.495,0.626,-4.395,-84.534,139.404
-1.112,-0.423,0.708,-0.244,-74.036,128.479
-1.210,-0.400,0.802,3.540,-75.989,121.338
-1.235,-0.352,0.908,6.409,-70.313,115.479
-1.292,-0.334,0.982,9.216,-54.749,110.291
-1.354,-0.278,1.004,12.878,-45.532,108.276
-1.402,-0.238,1.063,13.611,-41.260,106.506
-1.417,-0.211,1.158,10.010,-38.635,100.586
-1.415,-0.203,1.235,5.066,-34.790,94.482
-1.460,-0.136,1.275,1.953,-24.536,90.027
-1.473,-0.051,1.228,-10.986,-11.719,85.327
-1.505,0.027,1.138,-16.846,-5.493,77.454
-1.541,0.119,1.072,-17.822,-4.272,66.223
-1.521,0.174,1.077,-14.099,-5.493,51.819
-1.456,0.175,1.159,-7.141,-9.888,36.926
-1.397,0.148,1.240,-3.906,-12.756,24.475
-1.346,0.110,1.299,0.732,-8.728,14.343
-1.372,0.100,1.311,8.545,-0.183,7.507
-1.376,0.132,1.303,14.099,9.583,2.930
-1.345,0.160,1.313,20.569,17.883,-5.554
-1.295,0.127,1.288,18.555,24.353,-20.081
-1.234,0.049,1.242,3.540,29.785,-35.706
-1.146,-0.032,1.176,-11.169,34.912,-46.936
-1.092,-0.103,1.058,-20.142,39.856,-52.490
-1.061,-0.147,0.941,-20.874,44.922,-54.932
-1.042,-0.207,0.849,-10.803,53.223,-58.655
-0.988,-0.308,0.759,1.160,61.157,-64.758
-0.893,-0.423,0.687,3.235,62.988,-71.655
-0.830,-0.511,0.618,-0.488,64.880,-79.346
-0.663,-0.625,0.496,7.385,78.064,-89.050
-0.536,-0.688,0.543,16.541,84.045,-93.933
-0.524,-0.635,0.748,17.517,77.576,-90.820
-0.566,-0.517,0.962,14.160,73.120,-84.412
-0.608,-0.380,1.159,3.723,70.740,-82.642
-0.602,-0.305,1.237,-14.587,70.679,-88.501
-0.569,-0.316,1.197,-38.452,71.350,-98.145
-0.502,-0.409,1.091,-54.993,75.806,-107.361
-0.410,-0.557,0.927,-59.692,78.979,-112.000
-0.318,-0.727,0.749,-54.443,77.332,-110.168
-0.236,-0.812,0.614,-40.833,71.777,-101.318
-0.168,-0.832,0.594,-17.944,65.063,-89.172
-0.097,-0.854,0.616,11.475,63.232,-81.970
-0.056,-0.819,0.690,37.048,60.242,-79.346
0.082,-0.786,0.790,50.598,56.091,-83.130
0.197,-0.862,0.861,46.936,58.228,-95.947
0.366,-0.980,0.711,25.452,66.284,-109.863
0.558,-1.173,0.487,-0.610,70.313,-119.446
0.716,-1.375,0.347,-15.625,66.895,-121.277
0.840,-1.547,0.238,-5.371,69.214,-113.098
0.935,-1.615,0.213,24.353,74.829,-94.971
1.026,-1.631,0.284,51.575,74.524,-72.510
1.076,-1.585,0.365,58.960,71.350,-50.781
1.157,-1.467,0.392,55.298,66.956,-31.311
1.249,-1.303,0.377,43.335,61.523,-15.808
1.355,-1.169,0.350,29.602,54.565,-6.531
1.460,-1.095,0.328,15.686,42.847,-2.075
1.508,-1.046,0.311,5.798,31.921,0.488
1.528,-1.041,0.254,6.348,25.757,4.456
1.523,-1.044,0.212,6.592,15.503,11.414
1.487,-1.049,0.214,2.136,-0.305,21.790
1.424,-0.996,0.225,-1.831,-13.977,35.950
1.342,-0.891,0.229,-0.977,-21.423,49.805
1.295,-0.808,0.221,1.648,-27.405,58.777
1.236,-0.780,0.242,0.427,-37.048,62.805
1.171,-0.796,0.216,2.014,-42.847,64.575
1.105,-0.807,0.198,6.836,-48.035,66.345
1.005,-0.826,0.210,7.446,-59.021,66.772
0.909,-0.857,0.224,3.845,-70.068,65.125
0.808,-0.926,0.201,-1.221,-77.209,62.439
0.712,-0.992,0.195,-7.080,-87.219,63.293
0.624,-1.024,0.232,-11.169,-98.389,68.726
0.513,-1.018,0.295,-8.118,-103.088,78.369
0.371,-1.005,0.347,-1.160,-101.379,89.111
0.234,-0.950,0.406,1.465,-101.379,99.365
0.088,-0.869,0.440,-5.798,-103.088,107.178
-0.065,-0.829,0.449,-14.282,-99.731,109.985
-0.199,-0.795,0.448,-20.630,-96.924,109.619
-0.319,-0.778,0.444,-24.780,-97.961,108.521
-0.419,-0.807,0.454,-25.391,-101.074,107.422
-0.567,-0.781,0.574,-19.958,-101.746,108.032
-0.615,-0.777,0.565,4.211,-89.233,105.286
-0.704,-0.750,0.592,16.357,-80.200,101.868
-0.780,-0.721,0.559,15.198,-77.637,96.008
-0.862,-0.769,0.584,8.057,-75.806,86.792
-0.917,-0.809,0.575,1.038,-71.411,77.515
-0.899,-0.898,0.584,-9.033,-69.824,71.533
-0.967,-0.920,0.658,-22.705,-76.050,72.754
-1.024,-0.874,0.693,-23.743,-73.059,78.674
-1.062,-0.803,0.725,-12.024,-65.063,84.473
-1.095,-0.698,0.806,-4.822,-62.622,88.867
-1.110,-0.589,0.917,-0.977,-58.838,88.745

-1.114,-0.324,1.093,2.197,-39.917,79.956
-1.102,-0.214,1.130,-4.578,-32.349,70.862
-1.039,-0.141,1.158,-12.634,-27.100,59.692
-1.010,-0.080,1.208,-18.982,-23.193,50.415
-1.032,-0.016,1.194,-17.212,-14.526,43.640
-1.004,0.072,1.108,-11.597,-8.850,38.696
-0.986,0.133,1.112,-14.221,-17.273,34.546
-0.978,0.140,1.155,-15.747,-24.597,29.602
-0.970,0.138,1.156,-6.958,-20.691,25.085
-1.016,0.124,1.131,7.202,-12.756,20.569
-1.042,0.135,1.174,12.817,-5.798,15.137
-1.044,0.114,1.207,17.639,-0.061,5.615
-1.046,0.055,1.197,13.367,5.554,-5.737
-1.042,0.007,1.152,1.648,9.705,-16.357
-1.031,-0.086,1.065,-7.263,15.320,-26.611
-1.028,-0.219,0.971,-7.446,22.095,-35.400
-0.973,-0.332,0.866,-0.244,27.344,-39.551
-0.907,-0.472,0.743,10.803,33.325,-39.307
-0.900,-0.602,0.668,17.883,35.828,-34.973
-0.887,-0.673,0.621,23.743,38.757,-29.480
-0.907,-0.680,0.622,29.175,44.006,-25.696
-0.912,-0.607,0.580,27.527,45.593,-24.902
-0.883,-0.553,0.571,13.916,38.757,-31.189
-0.812,-0.545,0.686,0.549,25.940,-41.870
-0.731,-0.596,0.796,-4.150,19.653,-50.415
-0.671,-0.624,0.851,-1.526,22.034,-52.612
-0.611,-0.634,0.888,7.568,27.344,-49.011
-0.593,-0.651,0.905,11.169,33.997,-44.739
-0.549,-0.725,0.851,8.057,44.006,-42.725
-0.497,-0.732,0.812,-3.235,51.331,-40.527
-0.448,-0.752,0.758,-17.822,60.120,-40.344
-0.374,-0.739,0.691,-30.640,67.444,-39.246
-0.289,-0.756,0.647,-43.274,66.711,-36.804
-0.246,-0.772,0.654,-52.063,60.974,-33.447
-0.256,-0.667,0.598,-44.128,57.922,-27.039
-0.184,-0.543,0.527,-16.968,55.542,-24.353
-0.058,-0.541,0.595,11.169,43.274,-31.006
0.062,-0.530,0.766,26.245,26.978,-39.307
0.245,-0.620,0.893,35.583,29.968,-51.147
0.377,-0.745,0.926,34.607,44.861,-61.462
0.482,-0.817,0.787,18.799,59.509,-64.270
0.566,-0.888,0.549,-3.723,70.068,-64.270
0.604,-0.950,0.380,-17.456,73.364,-61.951
0.620,-0.927,0.260,-15.198,74.097,-56.946
0.699,-0.835,0.219,-0.488,73.303,-52.673
0.831,-0.783,0.293,19.714,64.270,-53.650
0.994,-0.781,0.483,35.950,50.171,-58.472
1.156,-0.819,0.651,41.748,40.649,-62.683
1.292,-0.921,0.688,31.311,35.034,-64.819
1.368,-0.983,0.648,8.728,28.015,-62.683
1.447,-1.016,0.529,-8.972,24.292,-58.899
1.542,-1.157,0.408,-15.564,24.597,-55.664
1.584,-1.294,0.361,-13.245,20.691,-44.189
1.584,-1.254,0.384,-4.456,13.123,-20.935
1.527,-1.182,0.400,7.385,7.080,2.441
1.419,-1.079,0.461,14.343,-2.869,22.095
1.302,-0.972,0.506,11.963,-13.550,35.889
1.208,-0.930,0.499,2.075,-18.250,44.312
1.075,-0.877,0.489,-9.277,-21.484,52.002
0.959,-0.768,0.451,-16.357,-21.912,59.143
0.848,-0.680,0.422,-20.325,-23.560,61.340
0.747,-0.607,0.438,-28.076,-32.227,58.960
0.690,-0.569,0.458,-38.635,-46.326,54.138
0.620,-0.578,0.511,-46.448,-61.096,48.096
0.563,-0.598,0.592,-44.617,-71.899,42.358
0.490,-0.674,0.612,-39.185,-77.209,38.330
0.452,-0.823,0.632,-35.522,-83.496,40.222
0.457,-1.032,0.690,-33.447,-92.224,55.115
0.244,-1.005,0.754,-33.081,-96.069,86.731
-0.024,-0.901,0.666,-23.010,-85.327,116.943
-0.258,-0.770,0.570,-20.081,-78.247,132.446
-0.386,-0.683,0.456,-27.283,-79.651,132.324
-0.506,-0.693,0.358,-34.119,-84.412,121.399
-0.596,-0.714,0.336,-33.508,-92.896,108.276
-0.641,-0.750,0.430,-19.043,-100.891,95.398
-0.662,-0.794,0.627,1.099,-104.187,85.754
-0.708,-0.846,0.836,10.986,-100.525,82.397
-0.761,-0.835,0.981,12.024,-88.928,86.731
-0.831,-0.774,1.007,11.597,-71.960,94.910
-0.951,-0.645,1.002,6.958,-57.129,102.661
-1.059,-0.501,0.995,0.183,-47.058,104.980
-1.095,-0.418,0.933,-9.094,-39.795,100.037
-1.175,-0.375,0.888,-18.433,-36.743,91.492
-1.220,-0.308,0.900,-20.447,-32.837,82.581
-1.227,-0.254,0.943,-13.184,-26.123,70.740
-1.237,-0.238,0.909,-7.324,-17.639,57.678
-1.227,-0.230,0.893,-7.690,-16.907,48.340
-1.221,-0.202,0.931,-11.169,-19.775,42.175
-1.209,-0.168,0.943,-10.376,-18.066,37.292
-1.182,-0.163,0.941,-5.371,-14.038,32.043
-1.178,-0.152,0.985,-1.770,-11.292,27.405
-1.204,-0.111,1.053,2.625,-6.165,22.522
-1.169,-0.100,1.076,8.118,1.160,14.587
-1.134,-0.122,1.107,9.216,6.042,4.578
-1.112,-0.123,1.128,8.362,10.681,-4.456
-1.062,-0.147,1.117,7.141,18.616,-14.526
-1.014,-0.201,1.082,-0.549,25.513,-23.560
-0.980,-0.248,1.010,-12.939,29.541,-30.212
-0.896,-0.348,0.869,-21.729,33.508,-35.706
-0.851,-0.415,0.760,-26.428,33.752,-37.659
-0.847,-0.434,0.667,-22.156,33.325,-37.354
-0.783,-0.451,0.577,-10.376,32.410,-38.757
-0.715,-0.496,0.559,-1.648,26.733,-42.542
-0.647,-0.519,0.558,3.540,20.691,-45.715
-0.607,-0.489,0.601,9.094,18.677,-47.974
-0.538,-0.475,0.637,14.099,22.217,-53.650
-0.432,-0.511,0.654,11.536,26.917,-61.523
-0.350,-0.549,0.702,2.808,25.757,-65.613
-0.285,-0.573,0.755,-1.282,27.527,-65.369
-0.205,-0.629,0.764,0.549,35.278,-62.561
-0.198,-0.634,0.791,1.282,37.598,-54.871
-0.174,-0.590,0.785,-0.916,40.039,-46.265
-0.090,-0.600,0.742,2.075,42.297,-41.870
-0.031,-0.641,0.746,3.052,36.377,-38.513
0.003,-0.648,0.757,4.211,30.518,-34.180
0.037,-0.644,0.729,13.672,29.480,-32.349
0.070,-0.647,0.750,20.935,30.029,-38.330
0.178,-0.713,0.749,23.193,33.203,-50.049
0.326,-0.787,0.658,17.822,42.297,-59.631

0.885,-1.003,0.508,11.292,55.481,-78.735
0.996,-1.052,0.520,5.432,45.227,-74.341
1.087,-1.104,0.510,8.667,41.626,-67.688
1.160,-1.129,0.526,11.414,37.170,-57.800
1.222,-1.098,0.586,7.019,26.428,-45.288
1.289,-1.089,0.635,-1.282,15.930,-35.278
1.321,-1.108,0.661,-9.583,7.202,-26.978
1.320,-1.106,0.641,-18.494,-3.601,-16.052
1.263,-1.078,0.657,-24.353,-16.846,-2.686
1.184,-1.016,0.720,-20.325,-27.161,10.803
1.086,-0.953,0.786,-13.428,-30.640,24.292
0.967,-0.834,0.859,-9.460,-31.799,37.842
0.872,-0.693,0.914,-6.226,-31.433,48.035
0.795,-0.601,0.923,-6.958,-30.212,53.589
0.719,-0.502,0.929,-12.634,-31.555,57.373
0.688,-0.436,0.916,-17.212,-31.616,59.204
0.669,-0.425,0.892,-20.142,-30.701,58.289
0.632,-0.447,0.840,-22.583,-28.564,57.678
0.575,-0.505,0.732,-22.400,-25.757,59.082
0.485,-0.550,0.631,-19.592,-27.588,64.453
0.344,-0.578,0.546,-15.686,-36.438,71.655
0.218,-0.596,0.450,-15.991,-45.288,76.782
0.103,-0.629,0.358,-17.578,-53.101,77.942
-0.004,-0.643,0.349,-20.691,-64.453,76.965
-0.136,-0.651,0.392,-21.057,-74.097,73.486
-0.228,-0.693,0.444,-17.578,-77.209,67.566
-0.255,-0.781,0.548,-13.794,-77.515,63.293
-0.293,-0.858,0.650,-13.062,-76.355,66.345
-0.405,-0.900,0.720,-8.484,-70.923,78.552
-0.571,-0.783,0.791,-0.183,-64.026,95.459
-0.682,-0.677,0.808,7.141,-56.458,105.164
-0.769,-0.627,0.822,4.639,-52.124,105.957
-0.862,-0.593,0.831,0.061,-48.706,102.722
-0.913,-0.561,0.815,0.122,-43.030,96.191
-0.944,-0.552,0.819,6.531,-37.659,87.463
-0.999,-0.524,0.844,14.221,-32.043,79.529
-1.080,-0.430,0.895,19.409,-24.597,73.120
-1.125,-0.354,0.875,22.156,-15.991,63.843
-1.133,-0.346,0.859,15.869,-11.292,50.354
-1.163,-0.370,0.879,4.883,-11.536,36.804
-1.152,-0.449,0.894,-3.967,-9.155,25.879
-1.165,-0.501,0.925,-8.484,-5.981,20.691
-1.177,-0.526,0.936,-7.385,-1.648,20.386
-1.215,-0.505,0.934,-2.625,4.333,22.278
-1.262,-0.445,0.900,0.854,10.437,23.315
-1.304,-0.365,0.836,2.502,15.869,19.836
-1.289,-0.298,0.781,1.831,18.921,10.864
-1.224,-0.274,0.758,-0.854,19.775,-1.831
-1.151,-0.275,0.743,1.221,20.752,-13.733
-1.052,-0.307,0.718,5.005,22.888,-22.095
-0.990,-0.323,0.715,3.540,23.499,-25.818
-0.942,-0.317,0.711,0.000,23.254,-26.917
-0.926,-0.322,0.675,1.343,24.292,-29.663
-0.865,-0.326,0.639,5.005,26.550,-36.377
-0.790,-0.387,0.631,7.324,26.611,-45.410
-0.724,-0.430,0.635,7.751,26.489,-52.612
-0.664,-0.474,0.647,8.667,28.015,-57.312
-0.571,-0.528,0.632,6.409,30.273,-60.730
-0.525,-0.557,0.646,0.122,30.273,-61.584
-0.479,-0.560,0.631,-4.639,32.715,-61.096
-0.425,-0.587,0.595,-8.240,35.950,-62.805
-0.347,-0.630,0.599,-9.216,35.828,-64.392
-0.264,-0.645,0.650,-5.615,35.583,-64.270
-0.194,-0.614,0.714,4.883,39.490,-64.331
-0.072,-0.581,0.776,19.226,46.204,-67.627
0.052,-0.577,0.872,28.076,52.185,-72.632
0.148,-0.596,0.916,28.015,59.204,-76.965
0.173,-0.619,0.926,22.827,66.040,-79.285
0.226,-0.598,0.884,11.902,70.862,-80.322
0.312,-0.657,0.769,-2.380,72.571,-82.520
0.332,-0.745,0.646,-17.029,68.481,-81.299
0.339,-0.797,0.558,-20.325,60.486,-75.806
0.366,-0.797,0.518,-6.592,55.115,-70.496
0.466,-0.748,0.545,14.282,51.208,-69.641
0.605,-0.802,0.616,30.396,46.875,-76.172
0.778,-0.916,0.695,33.142,40.527,-84.290
0.909,-1.039,0.736,26.367,33.203,-86.365
0.983,-1.177,0.734,16.968,27.405,-82.886
1.050,-1.272,0.740,7.324,19.836,-72.571
1.105,-1.321,0.769,-0.977,10.620,-56.580
1.144,-1.362,0.795,-9.338,3.662,-38.025
1.120,-1.365,0.844,-17.761,-1.465,-16.357
1.034,-1.278,0.868,-25.818,-4.639,8.545
0.902,-1.142,0.871,-28.931,-6.042,31.982
0.771,-0.990,0.878,-27.039,-7.751,49.805
0.664,-0.847,0.866,-22.644,-9.583,61.951
0.592,-0.708,0.856,-15.930,-11.963,69.580
0.560,-0.582,0.837,-10.315,-15.015,74.036
0.511,-0.500,0.812,-8.606,-17.822,75.989
0.461,-0.457,0.786,-8.606,-20.996,76.050
0.398,-0.435,0.782,-7.507,-22.644,75.073
0.347,-0.409,0.752,-5.371,-21.912,74.219
0.278,-0.392,0.704,-6.287,-21.057,72.021
0.212,-0.425,0.627,-10.254,-21.790,67.810
0.177,-0.506,0.568,-19.653,-26.794,64.758
0.112,-0.574,0.518,-30.518,-32.776,65.979
0.037,-0.601,0.463,-32.776,-35.767,70.313
-0.040,-0.634,0.428,-26.245,-36.865,74.951
-0.119,-0.649,0.445,-18.738,-38.757,78.186
-0.191,-0.652,0.486,-12.390,-41.016,79.285
-0.257,-0.650,0.516,-7.996,-42.297,78.918
-0.326,-0.628,0.581,-3.479,-44.617,77.637
-0.365,-0.608,0.641,3.540,-44.800,74.524
-0.418,-0.566,0.705,9.155,-41.809,70.618
-0.457,-0.504,0.748,13.733,-37.598,65.979
-0.487,-0.476,0.778,13.794,-33.508,58.899
-0.533,-0.511,0.807,7.935,-31.128,52.185
-0.551,-0.595,0.799,2.014,-30.762,50.964
-0.589,-0.673,0.784,-6.958,-31.555,55.908
-0.681,-0.670,0.758,-12.146,-28.748,63.904
-0.798,-0.660,0.695,-8.850,-23.621,68.909
-0.938,-0.614,0.696,-7.141,-23.865,68.665
-1.023,-0.603,0.681,-4.395,-22.339,59.448
-1.056,-0.601,0.698,-3.479,-20.813,46.753
