aX,aY,aZ,gX,gY,gZ
0.550,-1.041,1.226,-70.862,-26.001,46.143
0.562,-1.068,1.359,-87.036,-33.386,43.823
0.573,-1.135,1.494,-97.900,-35.706,36.194
0.552,-1.237,1.601,-106.689,-31.982,26.611
0.457,-1.343,1.681,-122.864,-22.949,11.719
0.435,-1.400,1.688,-120.667,-18.921,-0.427
0.373,-1.409,1.622,-110.962,-19.226,-7.263
0.294,-1.339,1.539,-105.225,-20.020,-11.780
0.262,-1.247,1.424,-101.685,-16.846,-17.334
0.191,-1.107,1.342,-98.755,-10.803,-19.409
0.170,-0.998,1.254,-93.140,-2.625,-20.569
0.203,-0.875,1.095,-83.862,5.493,-23.315
0.248,-0.691,0.908,-72.754,9.644,-24.841
0.304,-0.452,0.725,-61.707,10.681,-27.893
0.283,-0.153,0.571,-55.908,13.428,-37.415
0.312,0.100,0.392,-54.443,23.682,-50.110
0.350,0.355,0.187,-48.523,34.119,-57.251
0.292,0.698,0.008,-49.744,32.104,-53.284
0.205,1.074,-0.165,-56.763,23.865,-40.466
0.147,1.432,-0.401,-63.904,28.076,-19.836
0.029,1.867,-0.575,-70.313,51.392,17.212
0.017,2.262,-0.668,-81.116,64.758,46.814
0.075,2.528,-0.450,-103.455,49.744,52.368
0.174,2.622,0.016,-123.108,16.113,47.302
0.219,2.624,0.562,-132.202,-13.855,38.513
0.201,2.387,0.873,-116.943,-35.156,15.503
0.090,2.217,0.998,-80.200,-51.025,-9.766
-0.028,2.045,0.792,-34.729,-54.443,-28.931
-0.034,1.850,0.527,4.639,-46.936,-32.959
-0.022,1.665,0.360,31.067,-40.527,-19.104
-0.018,1.390,0.259,46.387,-46.570,-2.502
0.102,1.237,0.212,45.715,-41.077,22.339
0.117,1.090,0.230,25.940,-47.729,35.522
0.149,0.976,0.324,-2.808,-65.125,28.503
0.195,0.885,0.462,-21.606,-59.998,20.264
0.264,0.811,0.563,-25.696,-33.142,10.620
0.296,0.737,0.641,-26.062,-10.498,-3.357
0.296,0.674,0.707,-23.132,2.625,-16.174
0.275,0.599,0.759,-17.334,9.460,-22.827
0.271,0.513,0.797,-8.972,12.817,-22.705
0.314,0.400,0.806,0.305,13.916,-14.709
0.383,0.326,0.832,7.751,11.597,-3.113
0.483,0.269,0.853,9.277,4.456,6.836
0.552,0.250,0.888,5.005,-1.953,12.024
0.567,0.255,0.930,-1.770,-2.686,8.972
0.538,0.278,0.947,-6.348,3.784,-0.488
0.472,0.293,0.936,-7.629,13.428,-11.230
0.411,0.286,0.891,-5.554,20.081,-21.484
0.354,0.280,0.821,-1.770,21.667,-27.893
0.311,0.303,0.759,3.113,18.188,-29.053
0.308,0.332,0.718,5.249,14.160,-27.405
0.323,0.352,0.708,4.089,10.681,-23.376
0.358,0.362,0.700,0.732,6.714,-16.602
0.374,0.395,0.700,-3.540,0.793,-8.850
0.370,0.443,0.706,-8.057,-6.531,-2.808
0.337,0.479,0.721,-12.573,-12.695,0.122
0.323,0.512,0.736,-15.198,-14.404,0.000
0.304,0.543,0.743,-15.564,-11.658,-3.296
0.294,0.578,0.734,-14.771,-7.446,-9.399
0.261,0.610,0.729,-12.878,-3.540,-16.174
0.228,0.635,0.740,-10.376,-0.671,-20.996
0.195,0.656,0.759,-7.202,1.099,-22.034
0.173,0.659,0.769,-3.052,0.366,-19.409
0.149,0.671,0.779,0.916,-2.380,-14.526
0.136,0.673,0.797,3.723,-5.066,-8.667
0.142,0.660,0.811,6.042,-5.554,-3.296
0.156,0.646,0.821,8.423,-5.432,0.854
0.184,0.635,0.819,10.071,-6.653,5.371
0.215,0.610,0.816,8.972,-8.240,9.583
0.233,0.575,0.839,5.920,-8.667,12.268
0.265,0.544,0.854,2.747,-8.240,12.817
0.285,0.533,0.864,-0.549,-7.019,11.353
0.289,0.530,0.863,-3.052,-5.615,8.362
0.282,0.527,0.860,-4.761,-3.479,4.761
0.267,0.521,0.847,-4.517,-1.587,1.465
0.253,0.525,0.837,-2.502,-1.099,0.183
0.241,0.534,0.824,0.244,-1.770,1.038
0.232,0.530,0.810,2.563,-2.930,2.991
0.240,0.524,0.793,4.700,-3.967,5.859
0.247,0.523,0.789,6.897,-4.028,8.240
0.254,0.526,0.782,8.545,-3.540,9.216
0.268,0.531,0.768,9.827,-3.052,9.521
0.286,0.541,0.763,10.437,-2.991,9.155
0.283,0.549,0.766,10.986,-2.563,7.690
0.253,0.556,0.763,11.047,-1.831,5.005
0.220,0.562,0.765,11.230,-0.488,2.258
0.198,0.563,0.762,12.878,3.479,0.854
0.188,0.558,0.754,15.076,9.033,1.038
0.199,0.553,0.735,17.883,12.817,1.770
0.207,0.551,0.728,19.775,14.038,3.357
0.223,0.545,0.731,20.752,13.306,4.700
0.224,0.535,0.724,19.836,11.597,4.944
0.222,0.528,0.724,18.188,9.338,5.554
0.229,0.520,0.725,15.808,7.935,6.287
0.227,0.500,0.735,12.756,6.714,5.920
0.213,0.491,0.747,10.315,5.981,4.517
0.202,0.506,0.760,9.766,6.470,3.357
0.188,0.503,0.757,9.583,7.324,1.282
0.174,0.492,0.757,10.071,8.301,-0.916
0.175,0.484,0.753,12.451,9.399,0.000
0.180,0.490,0.749,15.381,9.644,3.723
0.203,0.484,0.745,17.212,8.545,8.301
0.224,0.466,0.746,16.357,7.385,13.123
0.245,0.450,0.769,14.465,6.165,16.907
0.266,0.441,0.810,12.817,6.226,17.578
0.271,0.421,0.834,12.390,7.751,14.893
0.272,0.405,0.850,13.367,9.521,10.864
0.263,0.404,0.849,14.832,11.414,8.484
0.259,0.396,0.842,16.663,12.573,7.874
0.250,0.372,0.838,17.334,12.634,8.301
0.240,0.351,0.840,16.785,10.742,10.010
0.240,0.337,0.842,15.259,8.606,13.672
0.254,0.323,0.859,11.963,7.568,17.761
0.271,0.322,0.878,8.057,6.836,19.958
0.272,0.341,0.902,5.493,5.066,19.531
0.263,0.371,0.923,4.944,4.456,16.907
0.245,0.411,0.928,7.385,5.920,12.634
0.216,0.439,0.921,11.658,9.644,8.240
0.235,0.453,0.894,18.127,15.930,4.639

0.193,1.473,0.785,-78.430,-41.931,7.874
0.138,1.406,0.765,-48.950,-36.255,-18.127
0.087,1.355,0.696,-19.226,-25.330,-33.264
0.011,1.241,0.589,3.662,-15.991,-42.419
0.057,1.118,0.530,10.803,-4.639,-39.612
0.050,1.023,0.525,10.437,-6.042,-24.963
0.077,0.958,0.539,9.583,-12.695,-9.338
0.106,0.930,0.553,6.531,-13.672,4.211
0.134,0.903,0.571,0.610,-11.414,9.399
0.159,0.868,0.618,-8.118,-8.667,6.836
0.192,0.814,0.693,-17.883,-2.075,1.587
0.252,0.727,0.763,-22.461,8.301,-1.831
0.319,0.651,0.797,-20.264,16.541,-1.953
0.373,0.583,0.799,-14.465,16.479,-0.549
0.425,0.514,0.789,-8.850,10.742,4.089
0.459,0.473,0.787,-4.028,3.418,10.559
0.498,0.454,0.778,0.122,-0.366,14.954
0.519,0.430,0.774,1.648,0.244,16.724
0.532,0.407,0.767,1.892,3.906,15.381
0.531,0.409,0.764,1.709,8.057,11.230
0.505,0.415,0.763,1.343,11.047,4.761
0.477,0.402,0.762,1.404,13.489,-1.587
0.465,0.385,0.759,2.747,15.076,-4.395
0.446,0.377,0.756,4.028,15.015,-4.517
0.433,0.372,0.757,4.089,12.756,-4.456
0.442,0.365,0.757,2.930,10.681,-2.319
0.452,0.368,0.762,1.038,7.263,1.099
0.443,0.389,0.773,-2.136,2.258,3.784
0.439,0.405,0.788,-5.554,-1.709,5.493
0.428,0.420,0.812,-8.240,-4.272,6.226
0.423,0.432,0.840,-9.094,-6.653,4.883
0.424,0.417,0.847,-8.545,-7.690,3.296
0.407,0.413,0.838,-6.042,-8.667,2.563
0.382,0.431,0.818,-3.784,-10.010,1.282
0.356,0.443,0.811,-3.296,-10.254,0.366
0.326,0.440,0.814,-4.028,-8.484,-0.244
0.303,0.449,0.815,-3.601,-5.920,-0.916
0.297,0.464,0.811,-3.235,-3.418,-1.038
0.305,0.462,0.823,-3.784,-1.770,-0.427
0.310,0.462,0.844,-4.272,-1.465,0.366
0.312,0.473,0.861,-3.479,-1.587,-0.305
0.326,0.468,0.868,-2.319,-1.282,-0.732
0.324,0.466,0.869,-0.671,-1.160,-0.305
0.315,0.462,0.866,1.282,-1.770,0.061
0.302,0.456,0.860,2.686,-2.869,0.244
0.305,0.453,0.850,3.479,-3.113,0.977
0.303,0.449,0.838,3.235,-2.563,1.892
0.292,0.442,0.830,1.892,-1.892,2.441
0.297,0.447,0.815,0.488,-1.343,2.686
0.312,0.454,0.815,-1.831,-0.671,3.235
0.319,0.448,0.825,-4.517,-1.099,2.441
0.314,0.460,0.834,-5.737,-2.563,1.282
0.306,0.473,0.832,-5.493,-3.479,0.488
0.298,0.484,0.834,-5.066,-3.235,-0.183
0.294,0.499,0.836,-3.784,-1.709,-0.977
0.297,0.510,0.836,-1.892,0.916,-1.709
0.299,0.516,0.834,0.305,3.418,-2.136
0.303,0.511,0.828,2.686,4.822,-2.563
0.306,0.509,0.826,3.540,4.822,-2.319
0.294,0.506,0.829,3.601,3.784,-2.258
0.283,0.503,0.832,4.150,2.930,-2.197
0.273,0.494,0.831,4.761,2.747,-1.770
0.267,0.483,0.823,5.066,3.235,-1.099
0.259,0.478,0.820,4.944,3.357,-0.183
0.258,0.471,0.820,4.089,3.479,1.160
0.262,0.472,0.830,2.991,4.150,2.991
0.262,0.462,0.837,1.953,4.089,3.418
0.273,0.459,0.834,2.319,2.747,4.150
0.284,0.447,0.827,2.380,1.221,6.470
0.287,0.432,0.819,2.136,0.305,7.935
0.290,0.435,0.814,2.075,-0.427,8.545
0.286,0.439,0.810,2.380,0.549,8.545
0.289,0.438,0.804,2.991,3.357,7.935
0.294,0.447,0.798,3.906,7.629,6.042
0.292,0.462,0.802,4.517,11.780,2.686
0.286,0.464,0.803,5.371,16.113,-1.038
0.283,0.457,0.796,6.531,20.264,-4.211
0.264,0.461,0.794,8.362,22.278,-7.202
0.251,0.467,0.794,11.047,23.071,-7.996
0.248,0.470,0.790,13.245,22.949,-5.859
0.243,0.467,0.794,15.320,21.179,-1.831
0.250,0.470,0.790,17.883,18.555,3.479
0.270,0.480,0.780,19.714,15.503,9.460
0.290,0.484,0.771,19.531,12.512,14.099
0.296,0.489,0.777,18.860,9.827,16.479
0.314,0.495,0.780,18.738,8.667,16.357
0.323,0.485,0.773,17.456,8.972,14.160
0.309,0.465,0.785,16.785,10.132,10.864
0.315,0.447,0.771,17.334,12.817,8.484
0.316,0.435,0.766,16.968,15.015,7.751
0.315,0.428,0.763,16.907,15.137,7.141
0.311,0.437,0.774,17.700,14.343,7.385
0.301,0.436,0.786,19.470,13.855,8.545
0.297,0.430,0.792,21.545,14.587,9.644
0.301,0.431,0.785,25.024,15.686,11.536
0.307,0.418,0.776,27.588,17.151,13.611
0.320,0.393,0.767,27.832,18.616,15.442
0.331,0.377,0.765,26.123,19.348,16.663
0.342,0.380,0.778,25.757,18.921,17.700
0.362,0.382,0.799,26.611,19.287,18.616
0.381,0.365,0.786,25.146,21.057,18.921
0.383,0.332,0.784,20.935,21.790,18.005
0.377,0.303,0.803,17.944,21.667,16.846
0.400,0.293,0.819,17.395,22.522,17.883
0.409,0.288,0.847,17.090,23.132,18.616
0.430,0.269,0.856,15.015,22.644,18.005
0.450,0.264,0.868,14.221,21.973,17.273
0.466,0.267,0.871,13.611,21.912,17.090
0.467,0.264,0.884,13.672,21.790,16.968
0.474,0.262,0.888,14.771,20.630,17.334
0.474,0.256,0.889,15.625,19.287,17.944
0.469,0.251,0.893,16.724,18.127,18.860
0.473,0.250,0.883,18.494,17.517,17.944
0.450,0.238,0.879,19.775,16.968,14.526
0.428,0.238,0.873,23.254,16.479,10.376
0.402,0.240,0.871,28.137,18.311,7.080
0.394,0.230,0.858,32.227,22.461,4.395
0.417,0.228,0.841,34.912,27.344,2.625
0.432,0.224,0.831,36.987,30.090,1.953

0.465,-0.758,1.230,-37.964,-26.855,-7.507
0.418,-0.798,1.204,-37.659,-22.827,-11.536
0.333,-0.909,1.184,-42.358,-18.677,-12.085
0.264,-0.982,1.239,-51.086,-15.564,-11.658
0.211,-1.024,1.304,-60.852,-14.893,-8.118
0.173,-1.078,1.337,-71.960,-16.052,-0.854
0.222,-1.103,1.332,-81.177,-18.860,6.653
0.321,-1.065,1.219,-80.200,-23.315,15.869
0.438,-0.950,1.013,-74.036,-25.330,24.902
0.528,-0.727,0.808,-65.857,-19.348,26.978
0.721,-0.483,0.622,-59.204,-3.662,20.386
0.872,-0.212,0.449,-59.631,13.916,7.080
0.910,0.117,0.293,-61.401,22.278,-11.963
0.919,0.469,0.150,-65.552,27.893,-27.893
0.752,0.827,0.051,-71.960,21.057,-43.335
0.516,1.173,-0.005,-79.651,5.432,-57.861
0.404,1.524,-0.052,-81.848,-0.244,-57.434
0.275,1.814,-0.052,-79.773,5.310,-47.241
0.196,2.004,-0.025,-77.087,12.695,-34.851
0.174,2.113,0.023,-75.012,11.658,-20.264
0.185,2.131,0.105,-76.660,3.967,-4.333
0.283,2.117,0.230,-80.811,-5.249,10.254
0.318,2.113,0.368,-79.224,-17.822,18.066
0.287,2.034,0.459,-68.665,-29.236,11.780
0.249,1.887,0.527,-52.979,-33.752,0.427
0.240,1.730,0.591,-33.813,-33.630,-7.385
0.203,1.433,0.575,-10.559,-38.208,-16.907
0.244,1.242,0.527,4.517,-31.311,-14.709
0.205,1.092,0.452,14.160,-34.485,-5.005
0.142,0.984,0.398,14.893,-53.406,-3.723
0.106,0.881,0.361,11.658,-55.298,2.136
0.078,0.799,0.337,5.493,-45.776,4.028
0.078,0.715,0.396,-6.531,-36.377,1.465
0.109,0.640,0.497,-19.348,-19.775,-0.610
0.182,0.585,0.610,-27.100,-5.432,-3.235
0.242,0.534,0.738,-30.823,2.258,-6.409
0.291,0.468,0.826,-28.870,8.301,-7.019
0.354,0.401,0.856,-21.545,11.536,-4.395
0.379,0.374,0.845,-12.024,10.498,-1.160
0.399,0.369,0.825,-5.432,9.399,0.793
0.416,0.356,0.819,-3.479,10.620,1.282
0.441,0.338,0.828,-3.723,14.038,-0.366
0.458,0.331,0.820,-2.808,16.602,-2.747
0.476,0.317,0.811,-0.549,16.357,-4.883
0.541,0.286,0.802,1.404,14.587,-3.845
0.594,0.263,0.782,3.235,9.644,-0.488
0.589,0.268,0.751,3.540,0.427,1.526
0.567,0.292,0.724,2.380,-7.874,1.831
0.552,0.335,0.705,-0.061,-11.047,0.671
0.513,0.391,0.699,-3.174,-10.376,-2.930
0.465,0.446,0.694,-6.958,-7.507,-7.385
0.424,0.467,0.706,-11.475,-3.784,-10.437
0.396,0.474,0.724,-14.404,-2.808,-10.986
0.392,0.493,0.736,-14.465,-5.005,-8.240
0.409,0.495,0.742,-14.587,-9.155,-3.723
0.405,0.494,0.754,-15.747,-14.832,-0.488
0.380,0.502,0.760,-16.174,-19.592,0.061
0.350,0.518,0.754,-14.954,-20.996,-0.671
0.315,0.523,0.755,-13.672,-19.104,-1.892
0.281,0.524,0.762,-12.085,-15.808,-3.296
0.250,0.543,0.770,-10.010,-12.634,-4.578
0.223,0.544,0.780,-8.728,-10.132,-6.104
0.203,0.544,0.786,-7.202,-7.812,-6.592
0.204,0.542,0.788,-5.432,-4.761,-4.639
0.222,0.521,0.802,-4.761,-2.441,-1.160
0.234,0.508,0.817,-3.967,-2.747,2.502
0.240,0.504,0.820,-2.747,-3.906,6.104
0.241,0.488,0.820,-2.075,-4.456,8.606
0.243,0.472,0.817,-1.709,-5.005,9.827
0.255,0.464,0.816,-1.831,-4.639,10.986
0.274,0.441,0.822,-2.625,-3.662,12.146
0.303,0.426,0.829,-3.174,-4.150,12.756
0.331,0.426,0.833,-3.174,-5.249,13.000
0.342,0.436,0.829,-2.991,-5.493,12.268
0.343,0.441,0.826,-3.357,-4.456,9.888
0.337,0.456,0.827,-3.418,-2.991,7.507
0.332,0.474,0.822,-2.747,-1.160,5.310
0.318,0.488,0.821,-2.136,0.549,2.747
0.304,0.504,0.816,-0.732,2.258,0.305
0.313,0.517,0.803,1.038,4.517,-1.038
0.319,0.519,0.793,1.709,6.042,-1.648
0.317,0.530,0.787,2.747,6.653,-2.563
0.323,0.543,0.772,4.089,8.728,-2.136
0.335,0.544,0.766,4.761,11.414,-1.648
0.345,0.544,0.764,4.517,13.306,-1.587
0.355,0.549,0.771,4.456,13.977,-1.648
0.372,0.564,0.771,3.967,13.123,-2.258
0.357,0.551,0.780,2.197,10.010,-4.272
0.336,0.542,0.783,1.343,6.470,-5.371
0.325,0.541,0.777,2.319,5.371,-3.235
0.328,0.527,0.777,2.930,4.456,-0.793
0.335,0.518,0.782,3.174,2.136,1.709
0.336,0.518,0.781,3.601,-0.122,4.333
0.343,0.515,0.779,3.540,-1.709,5.554
0.349,0.508,0.771,3.357,-1.892,6.409
0.351,0.496,0.767,2.869,-1.282,6.531
0.352,0.490,0.769,2.136,-0.122,6.470
0.352,0.491,0.779,1.404,1.343,6.165
0.347,0.490,0.790,1.221,2.136,5.249
0.339,0.481,0.791,2.380,2.502,4.700
0.343,0.481,0.787,4.272,2.319,4.761
0.346,0.483,0.782,6.165,1.709,5.005
0.337,0.477,0.779,7.019,1.831,5.615
0.345,0.479,0.774,8.118,2.441,6.348
0.354,0.487,0.766,9.155,3.235,6.226
0.352,0.491,0.756,9.827,3.967,5.371
0.346,0.498,0.756,11.047,3.906,3.845
0.352,0.508,0.752,13.062,4.517,2.258
0.349,0.524,0.745,15.503,5.432,0.427
0.346,0.532,0.751,18.921,5.920,-2.075
0.339,0.535,0.739,20.874,6.287,-4.456
0.319,0.528,0.731,22.949,6.775,-6.653
0.312,0.532,0.708,26.245,9.338,-6.470
0.314,0.535,0.696,30.090,13.184,-4.822
0.333,0.524,0.704,32.959,16.846,-3.723
0.348,0.499,0.715,33.508,18.372,-3.601
0.347,0.470,0.729,31.616,17.456,-4.089
0.336,0.447,0.754,29.114,15.991,-3.662
0.333,0.431,0.765,27.771,14.343,-2.625

0.240,-0.637,1.986,-49.072,0.244,4.578
0.208,-0.698,2.039,-38.269,9.583,-4.822
0.182,-0.772,1.930,-18.188,20.874,-14.587
0.172,-0.840,1.731,6.653,27.832,-16.968
0.197,-0.892,1.516,23.987,25.635,-10.864
0.238,-0.944,1.309,25.085,14.038,3.601
0.289,-1.016,1.141,13.062,-2.869,25.085
0.358,-1.067,1.014,-5.615,-21.301,47.729
0.484,-1.071,0.932,-25.085,-34.851,65.979
0.640,-1.028,0.862,-42.236,-39.673,74.585
0.750,-0.963,0.783,-54.382,-37.354,70.557
0.798,-0.877,0.674,-62.561,-29.541,51.697
0.765,-0.764,0.522,-69.824,-15.137,20.508
0.678,-0.589,0.335,-75.500,5.371,-11.719
0.622,-0.346,0.183,-79.651,29.297,-36.438
0.590,-0.026,0.076,-84.778,46.265,-51.819
0.489,0.292,0.002,-90.637,48.645,-61.279
0.454,0.613,-0.049,-92.957,38.025,-62.134
0.417,0.916,-0.063,-92.957,21.973,-54.688
0.405,1.213,-0.055,-91.248,5.066,-46.814
0.328,1.481,-0.021,-89.661,-7.019,-44.006
0.215,1.618,0.050,-89.539,-11.963,-46.204
0.250,1.663,0.127,-88.562,-11.597,-40.955
0.228,1.813,0.215,-79.346,-16.724,-25.513
0.187,1.931,0.263,-63.965,-24.414,-18.005
0.183,1.907,0.246,-52.246,-27.161,-21.606
0.079,1.901,0.264,-44.556,-29.480,-29.053
0.003,1.855,0.286,-37.170,-32.715,-36.438
0.056,1.731,0.314,-35.034,-26.611,-35.278
0.058,1.608,0.362,-35.706,-29.053,-23.132
0.053,1.496,0.404,-33.936,-45.654,-14.404
0.047,1.307,0.433,-31.128,-63.538,-5.798
0.108,1.128,0.409,-28.320,-71.838,8.789
0.159,0.989,0.390,-25.635,-76.416,22.339
0.200,0.901,0.384,-25.635,-75.806,26.794
0.208,0.851,0.403,-28.381,-64.880,19.470
0.197,0.814,0.450,-31.982,-44.861,2.991
0.159,0.773,0.522,-34.729,-22.095,-14.404
0.149,0.724,0.605,-34.729,-2.502,-26.550
0.174,0.684,0.694,-31.921,10.681,-30.518
0.179,0.691,0.790,-25.269,18.616,-28.748
0.239,0.685,0.844,-15.991,24.536,-25.146
0.308,0.666,0.886,-7.935,29.480,-21.912
0.330,0.640,0.911,-1.465,31.189,-20.508
0.349,0.594,0.906,3.967,29.846,-17.883
0.388,0.529,0.872,7.629,26.611,-9.705
0.410,0.481,0.834,9.460,19.165,0.916
0.422,0.454,0.805,9.033,9.766,8.423
0.444,0.425,0.786,6.165,3.601,13.000
0.475,0.394,0.757,2.930,1.038,17.334
0.503,0.370,0.730,-1.099,-0.916,19.287
0.522,0.371,0.721,-6.104,-3.662,18.005
0.510,0.385,0.724,-10.010,-5.920,14.099
0.481,0.408,0.726,-11.963,-5.432,7.263
0.445,0.439,0.726,-12.451,-2.991,0.122
0.427,0.466,0.733,-12.146,-0.061,-5.493
0.395,0.492,0.749,-10.925,1.282,-9.338
0.366,0.513,0.762,-7.935,0.244,-11.414
0.355,0.542,0.759,-3.479,-2.380,-11.353
0.339,0.554,0.769,-0.305,-5.310,-9.644
0.318,0.531,0.774,2.197,-7.812,-7.812
0.297,0.529,0.760,4.944,-10.315,-6.287
0.277,0.536,0.740,6.226,-11.902,-5.981
0.259,0.535,0.733,4.944,-12.085,-5.859
0.251,0.530,0.748,1.343,-11.292,-5.249
0.253,0.531,0.776,-1.831,-9.888,-4.211
0.253,0.528,0.797,-4.028,-8.057,-3.113
0.245,0.536,0.803,-5.249,-6.042,-2.319
0.225,0.543,0.811,-6.042,-4.639,-1.282
0.213,0.545,0.823,-6.470,-3.967,0.427
0.219,0.543,0.825,-5.310,-3.845,3.418
0.223,0.545,0.823,-3.723,-4.639,6.897
0.220,0.551,0.829,-2.502,-5.798,8.667
0.245,0.555,0.837,-1.160,-5.859,9.155
0.266,0.544,0.834,0.122,-4.517,8.667
0.257,0.540,0.828,0.671,-4.333,7.080
0.241,0.542,0.817,1.526,-4.700,5.249
0.225,0.550,0.809,2.686,-3.784,3.601
0.215,0.563,0.804,3.967,-2.319,1.892
0.208,0.574,0.812,5.005,-0.305,0.244
0.207,0.581,0.810,6.897,2.686,-0.610
0.202,0.601,0.800,9.399,5.249,-0.610
0.211,0.610,0.796,10.742,6.409,-0.854
0.223,0.594,0.794,11.169,6.470,-1.038
0.226,0.575,0.781,11.780,5.005,0.244
0.238,0.566,0.769,12.573,3.418,3.235
0.258,0.548,0.764,11.719,2.319,6.226
0.297,0.532,0.769,9.644,1.282,7.141
0.310,0.510,0.774,6.897,0.366,6.226
0.309,0.501,0.770,5.005,0.916,4.333
0.303,0.507,0.761,4.700,3.113,2.747
0.295,0.504,0.756,4.639,5.859,1.282
0.296,0.495,0.756,4.578,7.812,0.549
0.296,0.489,0.763,5.310,7.751,0.610
0.299,0.489,0.773,6.531,6.592,1.465
0.308,0.485,0.784,7.385,5.737,2.136
0.319,0.475,0.792,8.484,5.737,1.282
0.311,0.475,0.793,9.399,7.629,0.000
0.306,0.490,0.794,10.742,8.728,-3.113
0.300,0.493,0.786,11.230,12.024,-6.836
0.281,0.492,0.774,10.925,15.137,-9.583
0.262,0.502,0.770,10.254,14.587,-11.230
0.239,0.500,0.774,9.338,13.672,-9.705
0.237,0.502,0.773,9.766,12.939,-4.944
0.234,0.502,0.775,10.376,10.315,0.793
0.240,0.502,0.793,11.169,7.385,7.019
0.258,0.493,0.789,12.939,4.883,12.085
0.270,0.500,0.770,14.343,1.831,14.343
0.260,0.514,0.760,14.709,-0.916,14.221
0.247,0.526,0.749,14.526,-1.465,12.573
0.245,0.523,0.734,13.550,0.427,10.315
0.229,0.529,0.731,12.756,2.930,8.301
0.217,0.542,0.729,13.611,5.859,6.165
0.219,0.560,0.719,14.954,9.583,4.883
0.217,0.579,0.733,17.395,13.062,4.272
0.269,0.603,0.734,22.400,16.479,4.150
0.280,0.615,0.729,25.818,18.311,3.418
0.280,0.597,0.729,28.137,17.883,0.977
0.283,0.562,0.727,30.701,17.517,0.916

0.761,-0.429,1.499,-56.824,-9.277,-1.160
0.569,-0.708,1.685,-72.266,-9.827,-7.263
0.263,-1.068,1.900,-91.980,-10.498,-13.245
-0.153,-1.411,2.136,-112.427,-12.024,-14.832
-0.574,-1.665,2.269,-130.188,-9.216,-15.320
-0.913,-1.825,2.224,-134.827,4.456,-8.179
-1.161,-1.984,2.124,-127.930,31.372,10.376
-1.171,-2.092,2.084,-124.939,64.270,37.659
-0.945,-2.077,1.950,-125.916,97.290,79.895
-0.425,-1.884,1.742,-134.155,121.765,136.536
0.033,-1.528,1.536,-165.588,124.695,181.458
0.452,-1.060,1.244,-189.941,116.516,203.369
1.138,-0.530,1.062,-186.462,103.394,215.820
1.475,-0.160,0.942,-171.143,73.120,191.223
1.245,0.330,0.508,-136.169,35.889,115.173
0.853,0.825,-0.237,-85.571,44.189,30.762
0.376,1.130,-0.874,-57.739,95.703,-34.058
-0.104,1.471,-1.132,-64.514,131.775,-67.993
-0.378,1.856,-1.116,-81.726,120.789,-61.157
-0.514,2.161,-1.006,-89.050,81.055,-29.907
-0.552,2.401,-0.869,-80.505,30.945,-3.235
-0.568,2.456,-0.809,-63.965,-3.906,-6.531
-0.701,2.450,-0.846,-40.771,-10.132,-30.518
-0.741,2.323,-0.844,-24.780,10.315,-49.561
-0.699,2.076,-0.714,-26.917,29.541,-50.903
-0.550,1.864,-0.478,-34.912,29.175,-34.790
-0.340,1.686,-0.228,-35.706,15.259,-7.690
0.010,1.476,-0.109,-28.137,4.395,18.433
0.303,1.298,-0.062,-17.517,-2.136,34.485
0.471,1.149,-0.074,-9.460,-2.930,32.654
0.575,0.994,-0.080,-7.141,7.202,20.447
0.625,0.923,-0.014,-10.193,17.578,8.789
0.674,0.867,0.048,-10.132,23.010,-5.310
0.615,0.855,0.118,-13.123,28.442,-8.484
0.588,0.843,0.204,-15.991,21.179,-11.230
0.496,0.897,0.221,-18.677,22.827,-9.338
0.605,0.885,0.342,-19.836,32.776,-6.714
0.581,0.885,0.501,-21.484,23.437,-8.972
0.569,0.854,0.569,-15.198,14.587,-9.827
0.606,0.807,0.600,-6.042,12.817,-4.700
0.632,0.773,0.595,4.272,9.033,-0.244
0.594,0.768,0.562,12.024,0.000,1.282
0.571,0.757,0.510,15.930,-4.333,2.258
0.572,0.731,0.449,14.160,-3.845,2.319
0.555,0.723,0.426,6.348,-3.418,0.610
0.522,0.713,0.438,-2.502,-4.089,-4.333
0.512,0.692,0.452,-7.996,-1.404,-8.667
0.510,0.675,0.456,-8.789,2.258,-8.240
0.509,0.647,0.448,-6.714,3.723,-5.615
0.549,0.627,0.436,-3.601,5.493,-1.587
0.577,0.618,0.451,-1.892,5.249,0.549
0.569,0.617,0.474,-0.366,3.479,-0.488
0.551,0.620,0.478,3.113,2.991,-1.404
0.549,0.614,0.484,6.775,2.258,-1.038
0.575,0.601,0.514,8.667,-0.427,0.854
0.589,0.600,0.550,9.521,-4.944,2.930
0.582,0.611,0.563,10.315,-9.155,3.723
0.576,0.623,0.568,9.583,-10.864,5.371
0.579,0.632,0.573,7.019,-11.902,7.507
0.571,0.642,0.590,3.906,-14.038,9.033
0.560,0.667,0.608,2.197,-16.052,9.705
0.538,0.686,0.611,2.441,-15.564,8.545
0.531,0.697,0.601,2.808,-12.573,6.897
0.521,0.711,0.596,2.075,-11.108,5.371
0.516,0.709,0.604,0.244,-11.230,3.540
0.531,0.711,0.630,-0.793,-11.719,1.831
0.547,0.728,0.653,-0.061,-13.306,0.793
0.545,0.744,0.662,2.136,-15.137,-0.854
0.529,0.763,0.661,5.005,-15.930,-2.319
0.504,0.775,0.655,8.179,-16.052,-4.150
0.477,0.778,0.644,11.292,-16.235,-5.493
0.448,0.783,0.637,14.221,-17.334,-5.615
0.422,0.778,0.621,16.541,-19.165,-4.578
0.403,0.756,0.609,18.188,-20.996,-2.319
0.394,0.730,0.594,19.531,-23.437,1.099
0.382,0.709,0.581,20.020,-26.306,4.517
0.393,0.684,0.568,18.494,-28.442,7.690
0.415,0.666,0.569,15.991,-31.494,11.108
0.418,0.654,0.579,13.550,-35.339,12.390
0.414,0.652,0.577,11.902,-37.170,11.658
0.410,0.647,0.572,10.864,-36.133,10.132
0.401,0.638,0.572,9.888,-33.875,7.812
0.394,0.632,0.575,10.132,-31.799,5.371
0.375,0.633,0.563,11.353,-30.212,3.418
0.360,0.623,0.547,11.475,-28.137,3.540
0.375,0.611,0.546,10.132,-25.818,5.737
0.399,0.612,0.556,7.446,-26.550,8.240
0.397,0.620,0.566,2.869,-29.663,8.972
0.397,0.635,0.586,-1.831,-31.738,8.545
0.409,0.656,0.610,-3.784,-32.471,7.629
0.402,0.666,0.628,-3.906,-33.813,4.700
0.379,0.673,0.647,-2.502,-34.973,0.916
0.350,0.667,0.658,0.183,-33.813,-1.953
0.335,0.650,0.666,4.089,-30.273,-4.089
0.324,0.637,0.664,8.118,-26.428,-4.761
0.318,0.625,0.655,11.597,-23.010,-2.869
0.315,0.616,0.648,13.428,-20.264,0.183
0.319,0.612,0.652,13.794,-18.555,4.639
0.329,0.616,0.658,13.184,-17.578,8.911
0.330,0.626,0.675,12.329,-18.005,12.024
0.330,0.637,0.691,13.794,-18.555,12.268
0.314,0.633,0.689,16.602,-18.005,9.705
0.285,0.633,0.685,20.203,-17.578,6.470
0.263,0.629,0.682,23.621,-17.456,2.319
0.253,0.633,0.664,26.978,-14.587,-0.366
0.257,0.633,0.637,29.114,-9.277,-1.343
0.268,0.622,0.630,28.503,-4.578,-2.258
0.278,0.625,0.630,27.466,-1.892,-2.686
0.286,0.630,0.634,26.672,0.305,-2.441
0.279,0.603,0.641,23.560,1.038,-2.686
0.279,0.571,0.658,20.020,-0.854,-1.770
0.291,0.567,0.672,18.250,-5.127,1.831
0.308,0.590,0.708,16.296,-11.353,5.615
0.321,0.581,0.746,13.489,-17.822,5.005
0.316,0.573,0.756,12.024,-23.926,1.770
0.300,0.585,0.736,13.672,-28.625,-0.244
0.308,0.579,0.715,13.855,-29.175,-2.441
0.311,0.568,0.703,11.108,-28.748,-5.554
0.297,0.548,0.709,6.287,-32.654,-10.132

0.170,0.151,2.301,17.029,19.592,-37.964
0.037,-0.163,2.697,8.118,28.137,-47.058
-0.239,-0.579,3.144,-5.920,33.081,-53.833
-0.532,-0.969,3.571,-21.179,31.494,-57.861
-0.601,-1.259,3.786,-23.315,21.667,-49.316
-0.513,-1.403,3.658,-1.160,-6.531,-19.226
-0.397,-1.516,3.324,33.630,-48.462,17.334
-0.182,-1.684,2.879,60.547,-78.430,42.175
0.065,-1.775,2.272,84.229,-78.308,46.570
0.245,-1.846,1.606,102.356,-52.124,28.381
0.438,-1.809,0.859,101.318,-14.526,-9.705
0.781,-1.529,0.190,76.172,24.170,-57.678
0.739,-1.061,-0.387,33.508,39.612,-100.830
0.360,-0.316,-0.802,-15.137,28.687,-116.516
0.254,0.509,-1.131,-49.194,15.503,-92.896
0.323,1.402,-1.414,-62.195,14.343,-49.500
0.736,2.358,-1.367,-73.364,20.996,-23.254
0.325,2.836,-1.180,-84.106,9.705,-51.575
-0.221,3.041,-0.953,-76.721,-15.686,-96.436
-0.451,3.156,-0.861,-51.025,-3.784,-101.501
-0.547,3.020,-0.821,-28.320,25.513,-77.026
-0.476,2.719,-0.747,-20.142,28.931,-36.438
-0.456,2.352,-0.586,-25.696,4.822,9.216
-0.131,1.942,-0.336,-37.842,-20.447,57.922
0.211,1.619,-0.047,-50.354,-33.752,84.900
0.406,1.395,0.185,-52.002,-37.170,88.196
0.546,1.204,0.343,-47.119,-28.992,70.557
0.500,0.995,0.422,-40.955,-14.832,43.335
0.458,0.842,0.423,-28.015,-3.906,22.888
0.443,0.735,0.433,-17.029,1.587,12.878
0.448,0.662,0.494,-11.902,2.319,7.751
0.416,0.639,0.542,-8.362,1.221,2.808
0.375,0.641,0.570,-5.798,1.282,-1.831
0.315,0.642,0.600,-3.845,3.418,-7.507
0.232,0.652,0.650,-2.869,6.836,-15.076
0.217,0.685,0.698,-4.028,13.733,-19.714
0.116,0.734,0.769,-3.052,11.475,-20.630
0.122,0.744,0.805,-2.930,14.221,-27.649
0.124,0.756,0.841,-1.282,12.634,-23.743
0.132,0.781,0.847,1.343,8.118,-21.301
0.090,0.787,0.832,4.639,2.625,-16.602
0.074,0.768,0.814,6.348,-4.272,-13.916
0.070,0.743,0.785,6.897,-7.324,-10.620
0.059,0.713,0.758,6.531,-7.568,-7.629
0.061,0.663,0.742,4.517,-5.981,-3.540
0.092,0.627,0.738,1.038,-3.540,0.610
0.131,0.607,0.733,-1.526,-1.709,3.052
0.156,0.592,0.743,-2.747,-0.183,3.418
0.178,0.562,0.753,-2.258,2.869,3.601
0.196,0.531,0.743,-0.244,4.700,3.662
0.210,0.501,0.749,2.258,3.967,3.967
0.220,0.478,0.766,4.028,3.052,4.395
0.217,0.470,0.778,5.920,1.770,4.822
0.207,0.473,0.768,8.484,1.221,5.249
0.196,0.476,0.761,10.132,1.404,6.165
0.198,0.472,0.757,10.254,1.343,7.019
0.199,0.468,0.750,9.949,0.854,7.019
0.195,0.449,0.749,7.385,0.427,6.470
0.185,0.441,0.773,4.150,-0.366,6.958
0.189,0.458,0.808,2.930,-1.404,8.362
0.204,0.472,0.828,2.747,-1.282,9.277
0.230,0.487,0.838,1.892,0.427,8.911
0.230,0.507,0.867,-0.305,2.869,6.714
0.209,0.539,0.893,-1.343,3.967,2.930
0.186,0.574,0.897,1.282,4.944,-0.793
0.162,0.608,0.868,5.554,6.226,-2.563
0.131,0.626,0.851,8.057,5.859,-3.601
0.105,0.641,0.858,8.423,4.211,-3.540
0.089,0.654,0.858,9.094,3.296,-2.075
0.088,0.656,0.853,10.498,2.441,-0.305
0.103,0.644,0.840,10.681,0.061,2.808
0.093,0.623,0.835,8.667,-2.991,7.690
0.097,0.615,0.827,6.775,-6.531,13.123
0.092,0.603,0.824,5.188,-10.925,16.968
0.085,0.597,0.816,4.028,-14.221,19.043
0.072,0.589,0.802,2.930,-15.808,19.592
0.047,0.587,0.786,2.136,-16.052,18.860
0.039,0.589,0.769,2.625,-14.771,17.822
0.026,0.574,0.773,2.808,-13.428,15.869
0.027,0.551,0.774,3.052,-13.123,14.709
0.037,0.547,0.778,3.357,-13.611,15.747
0.041,0.538,0.782,3.479,-14.343,16.968
0.043,0.529,0.787,4.211,-14.771,17.578
0.046,0.529,0.774,5.432,-14.893,17.822
0.041,0.521,0.769,5.432,-15.198,17.761
0.025,0.511,0.768,3.845,-14.160,17.334
0.025,0.504,0.773,2.625,-11.230,16.663
0.033,0.511,0.784,1.099,-8.484,16.296
0.044,0.506,0.807,-0.427,-7.629,14.160
0.043,0.508,0.820,-0.916,-6.409,13.428
0.037,0.512,0.821,-0.305,-4.700,13.550
0.036,0.518,0.821,0.488,-4.639,13.184
0.028,0.515,0.813,2.075,-5.737,13.794
0.024,0.514,0.794,3.418,-7.568,14.893
0.010,0.504,0.789,3.601,-10.376,15.442
0.014,0.495,0.788,3.052,-11.475,15.076
0.010,0.492,0.796,2.075,-10.254,13.794
-0.003,0.489,0.809,0.366,-7.080,11.475
-0.001,0.484,0.825,-1.465,-2.136,10.498
0.016,0.495,0.834,-2.258,3.174,10.010
0.013,0.499,0.838,-3.418,5.920,8.423
0.000,0.508,0.849,-4.272,6.042,8.240
-0.016,0.514,0.849,-4.456,5.493,9.521
-0.027,0.509,0.842,-3.540,5.188,11.780
-0.041,0.505,0.831,-2.136,4.822,13.428
-0.039,0.504,0.816,-0.610,5.371,14.771
-0.015,0.501,0.809,0.305,7.141,15.442
-0.001,0.500,0.815,0.732,8.911,14.160
0.006,0.503,0.811,1.099,10.559,11.475
0.021,0.514,0.812,1.892,11.963,9.644
0.033,0.517,0.814,2.502,12.878,8.728
0.038,0.511,0.822,2.197,12.939,8.057
0.051,0.505,0.834,1.404,12.329,8.179
0.053,0.494,0.846,1.099,10.986,8.362
0.028,0.481,0.859,1.221,8.362,7.690
0.021,0.484,0.857,2.747,7.080,7.690
0.026,0.500,0.860,5.310,8.850,8.362
0.029,0.514,0.862,8.240,11.230,7.202
0.020,0.515,0.862,10.498,11.902,3.967

0.382,-0.626,2.406,-23.437,56.091,-14.832
0.070,-1.302,3.107,-49.805,64.209,-14.893
-0.366,-2.308,3.806,-86.914,70.251,-13.916
-0.735,-3.163,4.000,-107.300,57.373,-3.967
-0.706,-3.293,4.000,-62.439,21.545,15.381
-0.430,-3.281,3.815,3.235,-8.179,39.063
-0.143,-3.340,3.387,24.170,-13.306,68.237
0.520,-3.206,2.871,29.114,3.174,64.697
1.036,-2.918,1.921,30.457,24.475,39.795
1.256,-2.518,0.794,9.155,55.542,-12.817
1.354,-1.679,-0.268,-37.170,100.342,-70.923
1.094,-0.140,-1.259,-80.078,123.108,-89.355
0.578,1.975,-2.096,-107.605,121.887,-60.974
0.360,3.610,-2.105,-147.949,89.111,-27.832
-0.151,3.936,-1.594,-196.655,16.785,-47.913
-0.245,3.993,-1.410,-176.636,-34.363,-58.777
-0.229,4.000,-1.547,-106.567,-29.236,-41.138
-0.345,3.990,-1.573,-58.044,-5.554,-35.889
-0.567,3.662,-1.457,-33.813,7.141,-28.442
-0.568,3.302,-1.287,-22.827,2.808,-21.240
-0.479,2.801,-1.122,-15.198,-14.587,17.212
-0.205,2.323,-0.928,-11.353,-36.011,54.199
0.107,1.952,-0.625,-17.517,-48.645,87.402
0.343,1.673,-0.294,-27.466,-47.607,103.210
0.471,1.424,-0.057,-34.119,-34.790,94.177
0.562,1.182,0.138,-35.767,-18.250,76.355
0.619,1.010,0.347,-33.630,-9.277,61.035
0.615,0.912,0.515,-26.245,-9.216,48.279
0.470,0.828,0.646,-11.169,-20.203,38.330
0.478,0.733,0.687,3.052,-16.968,24.597
0.405,0.654,0.726,13.123,-10.742,18.555
0.349,0.594,0.794,14.343,-12.695,11.902
0.289,0.560,0.855,12.573,-10.681,10.925
0.284,0.538,0.908,10.193,-6.775,13.489
0.272,0.515,0.953,7.507,-8.423,14.282
0.240,0.511,0.975,6.531,-13.489,13.123
0.205,0.502,0.980,8.362,-17.822,11.169
0.192,0.472,0.972,12.512,-19.775,9.155
0.169,0.453,0.973,17.029,-20.813,6.226
0.144,0.448,0.959,22.949,-22.156,1.587
0.138,0.448,0.919,29.724,-23.926,-2.441
0.132,0.460,0.871,35.156,-26.550,-5.310
0.105,0.470,0.835,37.537,-28.259,-7.324
0.073,0.469,0.802,37.048,-29.114,-9.521
0.042,0.474,0.779,34.058,-27.588,-9.399
0.029,0.491,0.755,31.128,-23.499,-8.301
0.028,0.517,0.740,28.015,-18.799,-7.385
0.042,0.552,0.746,24.780,-13.794,-6.714
0.021,0.576,0.774,22.217,-10.071,-6.653
-0.002,0.576,0.803,21.179,-6.775,-6.836
0.012,0.566,0.799,22.644,-2.380,-3.113
0.040,0.562,0.789,24.292,-1.343,2.625
0.066,0.551,0.799,24.475,-4.272,9.094
0.092,0.528,0.807,23.315,-8.911,15.442
0.113,0.488,0.814,21.545,-13.245,18.860
0.136,0.437,0.818,20.020,-15.564,19.104
0.138,0.397,0.818,17.822,-15.564,17.517
0.145,0.388,0.815,15.930,-12.390,15.442
0.133,0.372,0.815,13.000,-8.057,12.756
0.129,0.365,0.829,7.446,-4.211,11.353
0.122,0.383,0.848,0.732,-4.211,13.245
0.089,0.371,0.880,-4.517,-10.193,12.451
0.059,0.360,0.891,-4.822,-18.677,13.245
0.051,0.353,0.886,-2.502,-24.292,16.846
0.041,0.361,0.880,-1.465,-27.161,21.729
0.028,0.389,0.878,-0.305,-27.283,25.208
0.011,0.404,0.882,1.404,-24.170,24.597
0.005,0.414,0.887,4.700,-16.663,20.203
-0.005,0.415,0.885,8.728,-6.836,13.855
-0.015,0.412,0.874,12.329,1.404,8.484
-0.012,0.421,0.870,13.062,7.446,5.920
0.006,0.420,0.886,10.986,12.024,5.615
0.029,0.427,0.908,7.568,14.465,5.005
0.012,0.434,0.928,5.310,12.329,3.601
-0.019,0.433,0.937,4.333,7.202,3.418
-0.021,0.425,0.925,5.554,2.808,5.981
-0.004,0.425,0.901,7.507,-1.831,10.498
0.016,0.418,0.883,8.179,-7.019,14.343
0.016,0.401,0.878,7.690,-11.597,15.381
0.012,0.393,0.866,7.751,-12.817,15.320
0.012,0.391,0.855,7.568,-10.681,14.893
0.010,0.380,0.849,6.653,-6.714,13.245
0.006,0.362,0.839,5.859,-2.747,11.353
0.002,0.355,0.827,5.676,0.427,10.193
0.021,0.364,0.829,5.249,2.747,9.277
0.057,0.385,0.849,4.211,4.761,8.484
0.072,0.391,0.873,1.892,6.226,6.775
0.069,0.376,0.902,-1.343,4.395,3.906
0.057,0.375,0.922,-1.526,0.732,2.869
0.049,0.374,0.933,0.122,-0.854,3.601
0.061,0.381,0.932,1.404,-0.549,3.845
0.056,0.385,0.929,1.892,0.183,3.967
0.045,0.382,0.921,0.916,1.648,3.845
0.038,0.392,0.922,0.000,3.845,4.150
0.032,0.405,0.920,-0.610,5.493,4.822
0.038,0.415,0.919,-1.343,6.348,4.883
0.030,0.411,0.919,-1.892,6.897,4.822
0.018,0.416,0.915,-1.770,6.592,5.066
0.017,0.423,0.917,-1.404,5.188,4.944
0.015,0.421,0.918,-0.244,4.272,4.395
0.017,0.419,0.906,1.953,4.089,3.662
0.030,0.416,0.882,2.991,3.418,2.747
0.036,0.411,0.864,2.686,2.930,1.648
0.045,0.411,0.850,1.831,3.479,1.343
0.045,0.415,0.846,0.854,4.944,0.732
0.054,0.420,0.849,0.122,6.287,-0.732
0.055,0.409,0.852,-0.122,7.141,-1.404
0.049,0.401,0.855,-0.427,6.775,-1.648
0.041,0.393,0.855,-1.099,5.920,-1.038
0.042,0.386,0.868,-2.686,5.371,0.122
0.051,0.384,0.874,-3.967,5.798,1.404
0.056,0.395,0.878,-4.944,6.104,1.892
0.054,0.411,0.885,-5.615,5.188,1.831
0.057,0.421,0.889,-5.249,3.906,2.014
0.058,0.431,0.897,-4.578,3.113,2.197
0.072,0.448,0.905,-3.479,2.319,1.465
0.057,0.436,0.907,-2.563,0.488,0.183
0.044,0.433,0.906,-2.197,-0.549,-0.427
0.038,0.437,0.908,-0.549,-1.465,0.183

-0.334,-1.266,2.704,-70.068,36.194,-26.306
-0.429,-1.679,2.893,-64.575,28.870,-24.109
-0.367,-2.070,2.800,-38.818,24.353,-20.203
-0.196,-2.376,2.540,0.122,20.813,-17.456
0.105,-2.599,2.194,26.245,19.470,-12.146
0.564,-2.693,1.844,18.494,18.799,8.179
1.061,-2.462,1.437,-9.705,1.709,26.245
1.439,-1.982,0.952,-49.500,-28.992,15.747
1.398,-1.342,0.372,-89.294,-47.913,-32.043
0.891,-0.163,-0.367,-109.375,-39.856,-97.839
0.338,0.891,-0.852,-119.812,-11.780,-160.034
0.025,1.714,-1.018,-129.150,14.099,-198.181
-0.313,2.662,-1.067,-127.808,25.574,-195.068
-0.487,3.465,-1.003,-106.201,38.879,-166.687
-0.230,3.708,-0.918,-76.538,56.335,-126.404
-0.043,3.725,-0.785,-52.429,48.523,-76.477
0.061,3.607,-0.596,-29.480,26.001,-25.757
0.202,3.300,-0.468,-7.751,16.357,3.906
0.378,2.941,-0.311,2.502,15.198,-3.174
0.512,2.536,-0.162,8.850,22.705,10.376
0.670,2.082,-0.013,10.559,19.958,19.409
0.745,1.661,0.141,1.953,7.507,32.104
0.795,1.348,0.264,-9.521,-6.226,43.091
0.816,1.120,0.366,-19.104,-18.860,47.791
0.772,0.975,0.444,-24.963,-27.832,43.579
0.662,0.883,0.508,-27.039,-34.424,37.842
0.564,0.811,0.551,-23.804,-38.452,32.837
0.459,0.767,0.549,-16.602,-39.124,28.809
0.340,0.750,0.527,-10.132,-37.170,24.963
0.217,0.769,0.538,-3.906,-30.090,18.372
0.118,0.775,0.587,2.808,-19.226,8.240
0.029,0.791,0.646,11.353,-7.935,-2.136
-0.038,0.774,0.694,21.545,0.061,-10.925
-0.065,0.748,0.727,31.982,5.920,-16.602
-0.069,0.726,0.732,40.283,8.667,-16.174
-0.069,0.687,0.737,42.908,6.958,-12.573
-0.065,0.618,0.755,41.138,2.563,-8.118
-0.066,0.539,0.763,39.063,-1.160,-2.747
-0.047,0.487,0.754,37.537,-0.977,3.174
-0.039,0.435,0.744,34.729,-0.732,7.935
-0.016,0.393,0.726,31.006,-2.136,11.292
-0.003,0.368,0.717,26.184,-3.845,15.015
0.010,0.345,0.719,20.447,-3.784,18.433
0.030,0.324,0.722,15.381,-1.892,21.606
0.046,0.295,0.738,10.620,0.916,23.804
0.077,0.279,0.757,7.080,5.188,25.269
0.109,0.282,0.781,5.737,10.498,25.330
0.130,0.289,0.811,5.493,14.221,24.109
0.151,0.297,0.841,5.737,15.625,23.071
0.187,0.301,0.875,4.761,14.709,22.705
0.206,0.302,0.908,3.784,12.451,21.484
0.193,0.303,0.941,4.211,10.071,19.836
0.190,0.293,0.961,6.226,9.094,18.311
0.201,0.289,0.966,8.972,9.094,16.357
0.225,0.298,0.964,11.841,8.911,14.404
0.220,0.305,0.949,13.062,7.324,11.780
0.186,0.297,0.952,10.315,4.211,8.179
0.148,0.293,0.950,7.690,2.563,7.141
0.124,0.293,0.947,7.202,3.540,8.057
0.106,0.296,0.952,7.385,4.395,8.606
0.099,0.308,0.939,7.935,4.639,8.667
0.080,0.342,0.918,7.324,5.981,8.850
0.040,0.377,0.915,6.042,8.301,7.751
0.046,0.398,0.903,5.798,11.414,7.385
0.080,0.429,0.894,5.432,13.062,7.874
0.099,0.453,0.894,3.845,11.047,8.118
0.090,0.467,0.908,1.770,7.446,8.179
0.083,0.479,0.907,1.648,5.005,8.423
0.100,0.482,0.910,2.991,3.723,8.972
0.116,0.479,0.916,4.639,3.174,8.728
0.124,0.462,0.915,6.042,3.296,6.958
0.123,0.443,0.913,7.263,4.089,4.150
0.130,0.442,0.914,8.057,5.859,1.404
0.131,0.458,0.898,9.399,7.812,-0.732
0.120,0.451,0.886,9.521,7.874,-2.808
0.104,0.440,0.881,9.155,5.859,-3.906
0.099,0.438,0.878,8.972,3.967,-2.380
0.107,0.433,0.871,8.484,3.113,0.610
0.098,0.423,0.868,7.507,3.296,3.967
0.107,0.427,0.864,6.409,3.235,6.958
0.121,0.432,0.859,5.066,2.502,9.338
0.124,0.424,0.849,3.479,1.160,11.780
0.112,0.415,0.847,1.709,-0.793,13.062
0.109,0.390,0.856,-0.427,-2.380,13.611
0.114,0.372,0.876,-1.831,-2.563,12.939
0.107,0.370,0.887,-1.831,-1.709,10.925
0.097,0.379,0.888,-1.892,-0.366,7.935
0.098,0.395,0.890,-1.404,1.648,5.127
0.101,0.414,0.895,-0.244,3.723,2.686
0.097,0.433,0.898,1.465,5.310,0.183
0.083,0.438,0.900,3.174,6.836,-0.427
0.068,0.447,0.891,5.310,8.728,0.671
0.063,0.446,0.887,7.263,9.155,2.930
0.068,0.440,0.875,8.667,7.385,6.042
0.086,0.438,0.849,9.583,4.272,9.460
0.099,0.438,0.830,8.179,1.099,12.939
0.105,0.430,0.828,4.822,-1.099,13.550
0.113,0.439,0.840,2.625,-1.831,12.207
0.126,0.453,0.843,2.686,-1.038,10.620
0.133,0.453,0.838,2.747,0.061,8.545
0.120,0.447,0.835,3.418,0.488,6.348
0.114,0.452,0.830,4.211,0.427,5.737
0.110,0.454,0.831,6.226,0.610,6.897
0.117,0.435,0.820,8.484,1.282,9.033
0.132,0.416,0.801,9.277,1.770,12.390
0.136,0.403,0.785,7.446,-0.305,16.235
0.143,0.393,0.780,4.639,-1.770,19.287
0.151,0.388,0.784,1.953,-2.319,20.630
0.165,0.382,0.795,-0.610,-2.869,20.386
0.171,0.376,0.818,-3.113,-2.625,18.677
0.165,0.383,0.842,-5.249,-3.235,15.869
0.161,0.397,0.868,-6.897,-3.601,13.306
0.155,0.419,0.893,-7.263,-3.235,10.803
0.139,0.429,0.911,-6.348,-3.418,9.583
0.130,0.437,0.920,-3.662,-3.906,9.033
0.116,0.453,0.925,0.000,-3.662,9.216
0.101,0.435,0.928,2.869,-2.380,8.667
0.093,0.414,0.939,5.554,-1.648,8.423
0.097,0.407,0.935,8.423,-1.099,9.277

-0.237,-0.956,1.937,-41.870,-19.043,-11.108
-0.274,-1.111,1.919,-38.269,-20.874,-10.681
-0.205,-1.116,1.798,-30.640,-21.729,-8.423
-0.063,-1.085,1.656,-25.513,-22.034,-6.836
0.070,-0.994,1.508,-25.208,-24.353,-9.033
0.208,-0.826,1.385,-26.611,-27.222,-17.517
0.315,-0.617,1.282,-26.733,-24.841,-34.973
0.368,-0.384,1.128,-18.188,-14.526,-56.335
0.417,-0.178,0.989,-5.981,0.916,-75.562
0.481,-0.010,0.831,3.418,16.479,-91.064
0.549,0.199,0.621,11.475,24.536,-101.196
0.538,0.406,0.419,9.460,24.841,-104.431
0.499,0.646,0.299,-1.526,22.339,-99.976
0.539,0.891,0.181,-12.695,23.621,-88.562
0.560,1.220,0.005,-22.156,26.306,-72.266
0.634,1.632,-0.123,-32.532,25.085,-59.570
0.626,1.932,-0.207,-47.424,19.897,-62.012
0.393,2.153,-0.173,-62.988,4.333,-75.989
0.302,2.313,-0.095,-68.115,-8.789,-80.811
0.240,2.353,-0.040,-57.800,-7.935,-76.416
0.294,2.361,0.018,-48.950,14.648,-61.523
0.277,2.366,0.108,-41.138,15.503,-53.650
0.258,2.312,0.204,-37.415,-1.099,-44.373
0.192,2.177,0.226,-32.043,-17.883,-30.762
0.133,2.009,0.168,-22.705,-26.550,-9.949
0.132,1.834,0.095,-14.282,-35.583,12.512
0.149,1.656,0.082,-9.888,-43.274,31.128
0.170,1.482,0.095,-8.118,-46.875,43.884
0.192,1.327,0.123,-7.080,-46.448,50.415
0.189,1.176,0.178,-5.432,-41.443,50.903
0.200,1.065,0.230,-1.343,-32.410,47.485
0.202,0.967,0.269,4.761,-20.447,42.114
0.197,0.865,0.321,9.521,-5.493,34.424
0.198,0.781,0.382,15.259,5.859,25.879
0.183,0.731,0.435,22.888,14.832,18.921
0.176,0.687,0.477,30.579,25.391,14.832
0.177,0.636,0.509,35.034,33.569,12.451
0.163,0.596,0.553,33.936,35.095,12.573
0.146,0.553,0.620,28.503,33.630,15.381
0.145,0.514,0.678,23.010,33.264,21.606
0.137,0.486,0.736,18.738,32.593,29.480
0.147,0.469,0.781,15.991,30.396,37.903
0.168,0.465,0.814,14.343,27.100,45.471
0.182,0.453,0.836,13.733,23.437,50.232
0.184,0.423,0.845,15.015,20.569,51.941
0.196,0.395,0.829,18.494,20.325,52.368
0.233,0.380,0.803,22.888,21.973,52.673
0.259,0.354,0.781,25.635,23.010,52.063
0.272,0.316,0.772,24.902,23.132,49.438
0.298,0.282,0.790,23.193,23.743,45.044
0.312,0.264,0.800,22.400,24.597,39.917
0.314,0.250,0.827,20.813,23.865,32.898
0.315,0.244,0.848,20.203,23.499,26.245
0.307,0.252,0.859,21.667,22.949,22.095
0.292,0.250,0.868,23.560,20.020,20.508
0.277,0.253,0.871,25.452,16.052,20.386
0.276,0.268,0.863,28.870,14.404,21.606
0.269,0.281,0.858,33.142,14.954,22.095
0.254,0.282,0.855,35.706,17.273,20.752
0.239,0.274,0.860,36.560,20.996,16.418
0.235,0.276,0.860,35.522,25.696,10.559
0.220,0.281,0.873,33.630,29.236,4.944
0.229,0.292,0.873,29.114,30.884,0.488
0.235,0.297,0.876,21.179,30.396,-3.052
0.206,0.292,0.896,14.282,27.588,-4.944
0.195,0.304,0.907,10.071,23.621,-2.869
0.194,0.326,0.907,8.850,19.470,2.808
0.201,0.341,0.901,7.751,16.479,10.376
0.214,0.338,0.887,5.676,14.038,16.785
0.230,0.338,0.876,3.479,11.353,20.935
0.251,0.344,0.868,1.709,9.338,22.949
0.255,0.351,0.859,-0.732,9.094,22.278
0.242,0.352,0.860,-2.869,8.179,19.897
0.226,0.361,0.876,-2.075,6.287,16.907
0.216,0.353,0.872,1.404,7.080,15.503
0.210,0.342,0.880,4.883,8.972,15.320
0.215,0.347,0.889,9.583,9.460,16.174
0.240,0.341,0.891,12.939,9.277,16.174
0.229,0.326,0.912,12.939,5.737,15.015
0.219,0.334,0.932,12.268,1.282,13.916
0.222,0.333,0.939,12.329,1.282,13.428
0.238,0.340,0.937,12.207,5.249,13.184
0.237,0.333,0.939,11.658,9.460,11.963
0.229,0.329,0.938,10.986,11.597,10.986
0.225,0.334,0.936,10.437,11.658,10.803
0.218,0.333,0.937,10.803,11.169,11.108
0.218,0.340,0.937,11.597,11.047,11.597
0.231,0.339,0.925,13.306,11.047,11.719
0.235,0.333,0.915,14.832,10.254,11.658
0.236,0.317,0.909,16.113,9.460,10.864
0.251,0.324,0.893,16.663,8.850,10.498
0.256,0.333,0.882,15.320,8.179,11.169
0.250,0.328,0.879,11.292,6.592,11.841
0.249,0.313,0.886,7.263,4.456,12.329
0.260,0.313,0.888,4.211,2.991,13.855
0.271,0.315,0.887,1.709,1.892,15.259
0.275,0.319,0.891,-0.732,0.244,15.381
0.269,0.329,0.902,-2.380,-1.465,14.404
0.264,0.331,0.906,-2.563,-1.465,12.756
0.266,0.331,0.909,-1.892,0.488,9.766
0.259,0.338,0.901,0.000,2.625,6.104
0.249,0.330,0.895,0.793,4.395,3.540
0.248,0.320,0.886,0.427,5.920,2.075
0.225,0.319,0.888,-0.793,6.104,1.282
0.216,0.316,0.886,-2.808,5.371,1.648
0.213,0.316,0.889,-4.395,4.272,4.272
0.236,0.330,0.889,-5.615,3.357,7.080
0.253,0.335,0.884,-8.179,2.686,7.690
0.249,0.344,0.903,-12.329,1.282,5.432
0.236,0.357,0.937,-14.709,0.793,2.380
0.221,0.374,0.950,-13.794,2.869,0.549
0.215,0.395,0.962,-11.292,4.578,-0.061
0.198,0.390,0.963,-7.751,4.456,-0.244
0.195,0.385,0.957,-4.456,3.845,1.343
0.194,0.383,0.948,-0.977,1.831,3.296
0.198,0.380,0.939,2.991,0.122,4.761
0.201,0.364,0.927,6.348,1.221,5.554
0.203,0.350,0.923,8.118,3.906,4.822
0.216,0.345,0.917,9.460,7.202,3.662

-0.246,-1.221,2.089,-76.233,-0.366,-6.287
-0.515,-1.771,2.426,-97.656,9.155,-1.587
-0.596,-2.237,2.717,-113.708,15.564,9.644
-0.422,-2.520,2.816,-106.384,14.221,25.330
-0.261,-2.634,2.854,-88.135,11.353,29.236
0.045,-2.595,2.995,-77.393,18.799,20.447
0.577,-2.463,3.062,-76.172,30.090,27.954
1.093,-2.249,2.861,-74.768,24.719,33.569
1.402,-2.004,2.467,-62.988,-3.235,17.273
1.464,-1.659,1.941,-46.265,-30.518,-16.235
1.553,-1.119,1.057,-20.081,-34.424,-59.021
1.627,-0.411,0.134,3.174,-19.531,-97.229
1.514,0.387,-0.728,8.423,-7.935,-130.981
1.115,1.318,-1.399,-7.507,-10.864,-159.424
0.546,2.374,-1.677,-37.781,-13.000,-161.255
0.307,3.069,-1.859,-65.002,-6.104,-134.399
0.388,3.598,-1.873,-94.177,-12.512,-89.844
0.206,4.000,-1.617,-124.023,-50.598,-46.753
-0.090,4.000,-1.335,-134.216,-86.792,-27.832
-0.206,3.997,-1.204,-115.417,-92.346,-25.146
-0.286,3.803,-1.019,-96.252,-83.618,-35.828
-0.459,3.400,-0.789,-80.444,-74.341,-33.752
-0.523,2.935,-0.685,-52.551,-65.369,-26.123
-0.467,2.501,-0.686,-24.414,-55.481,-2.747
-0.271,2.100,-0.687,-6.897,-48.950,26.611
-0.056,1.761,-0.614,0.977,-45.227,48.279
0.142,1.469,-0.501,2.014,-33.264,56.824
0.310,1.294,-0.300,-1.709,-10.986,55.969
0.516,1.099,-0.103,-0.610,14.526,37.048
0.585,0.988,0.086,-6.958,43.579,20.691
0.589,0.925,0.311,-14.404,52.734,6.409
0.537,0.859,0.515,-17.456,53.589,-3.296
0.493,0.818,0.668,-15.076,55.237,-4.883
0.459,0.804,0.764,-13.367,56.213,-1.770
0.410,0.775,0.850,-14.404,53.772,1.160
0.376,0.742,0.939,-15.991,50.293,3.845
0.361,0.719,1.012,-12.756,48.584,8.301
0.378,0.708,1.041,-4.700,46.875,12.512
0.397,0.693,1.054,3.723,41.382,14.282
0.399,0.668,1.051,9.094,33.691,13.245
0.411,0.630,1.041,11.902,27.954,12.085
0.412,0.585,1.043,14.343,24.231,11.353
0.392,0.541,1.031,18.127,21.423,9.888
0.381,0.505,0.983,24.048,17.700,9.094
0.366,0.469,0.925,29.358,13.428,7.568
0.342,0.425,0.867,33.997,11.169,8.728
0.316,0.389,0.818,39.795,13.184,11.108
0.316,0.371,0.766,44.006,18.860,13.794
0.316,0.349,0.710,46.143,22.095,18.982
0.319,0.301,0.665,44.739,22.217,20.752
0.325,0.265,0.631,41.931,26.489,24.109
0.339,0.250,0.609,37.537,27.771,30.029
0.352,0.227,0.602,30.823,23.987,32.471
0.337,0.223,0.612,23.315,18.738,32.837
0.357,0.220,0.616,12.939,14.587,32.349
0.357,0.232,0.655,0.366,8.057,31.799
0.337,0.250,0.702,-7.019,-2.930,26.733
0.339,0.279,0.762,-9.094,-9.705,20.386
0.357,0.320,0.802,-7.629,-10.315,17.578
0.362,0.360,0.848,-4.089,-9.827,15.259
0.349,0.397,0.873,2.380,-8.362,10.925
0.331,0.417,0.886,10.437,-3.784,3.784
0.301,0.424,0.889,18.921,2.014,-2.625
0.276,0.415,0.892,26.550,7.202,-7.812
0.275,0.416,0.893,30.334,10.315,-10.254
0.269,0.419,0.904,31.006,11.169,-9.644
0.274,0.441,0.920,29.968,10.925,-7.019
0.288,0.461,0.933,27.771,10.376,-3.174
0.298,0.476,0.951,26.978,8.301,0.244
0.291,0.508,0.957,27.100,1.526,0.488
0.274,0.532,0.952,24.292,-5.005,-0.854
0.253,0.525,0.940,17.883,-10.254,0.305
0.224,0.504,0.932,13.000,-15.259,3.418
0.208,0.493,0.905,11.597,-19.043,7.080
0.195,0.483,0.881,11.047,-19.775,12.024
0.196,0.468,0.863,9.949,-17.029,16.602
0.209,0.454,0.852,8.179,-14.526,20.203
0.225,0.449,0.850,6.165,-13.855,22.278
0.219,0.446,0.862,3.967,-15.015,22.461
0.216,0.457,0.879,3.479,-15.991,20.874
0.204,0.467,0.894,4.761,-15.564,18.494
0.186,0.464,0.906,7.324,-14.587,15.381
0.170,0.470,0.913,11.353,-13.550,12.024
0.159,0.480,0.915,17.090,-12.634,9.705
0.150,0.476,0.906,22.766,-10.803,8.789
0.154,0.466,0.890,27.344,-8.606,7.690
0.151,0.456,0.875,30.334,-6.226,6.775
0.146,0.440,0.867,31.738,-3.967,5.310
0.155,0.423,0.858,30.762,-1.770,3.601
0.168,0.415,0.854,28.198,0.122,3.113
0.178,0.413,0.846,23.987,1.282,3.479
0.176,0.399,0.850,19.226,0.427,4.333
0.181,0.408,0.860,14.832,-1.892,6.775
0.200,0.424,0.869,11.047,-4.517,9.644
0.196,0.427,0.882,8.301,-6.775,10.925
0.171,0.429,0.900,6.775,-8.667,10.193
0.159,0.423,0.896,7.812,-8.423,9.277
0.163,0.429,0.874,10.559,-5.310,8.484
0.159,0.429,0.855,12.390,-2.136,6.592
0.144,0.412,0.845,12.756,-0.366,3.967
0.138,0.403,0.848,12.817,1.465,1.404
0.148,0.396,0.845,13.184,4.028,0.183
0.179,0.392,0.841,13.000,6.714,0.061
0.190,0.383,0.845,12.329,7.935,0.183
0.196,0.367,0.859,11.414,8.545,0.671
0.199,0.358,0.866,10.254,9.216,1.526
0.197,0.352,0.872,9.827,8.850,3.235
0.201,0.349,0.870,9.949,7.812,5.371
0.201,0.338,0.876,9.155,6.714,6.775
0.215,0.331,0.881,8.057,5.981,7.507
0.233,0.343,0.882,7.385,5.188,7.080
0.231,0.357,0.885,6.042,4.028,5.127
0.222,0.347,0.896,4.089,4.944,2.747
0.217,0.342,0.904,3.540,8.545,0.732
0.217,0.354,0.908,4.578,11.841,-0.610
0.204,0.349,0.921,5.981,13.367,-1.404
0.207,0.363,0.929,7.385,14.282,-2.136
0.202,0.369,0.924,8.789,15.198,-1.465
0.193,0.354,0.927,8.728,14.648,-0.122

-0.005,-0.765,2.139,-82.886,-71.716,24.231
-0.198,-0.889,2.251,-80.139,-68.481,17.639
-0.320,-1.044,2.317,-71.899,-57.678,10.864
-0.311,-1.099,2.283,-57.129,-48.035,9.155
-0.262,-1.031,2.105,-30.273,-48.462,15.930
-0.158,-0.972,1.903,-5.859,-54.688,27.710
0.010,-0.936,1.683,5.066,-59.509,38.696
0.242,-0.895,1.394,13.306,-61.401,48.340
0.442,-0.804,1.053,19.592,-62.195,53.406
0.635,-0.671,0.622,14.893,-58.105,45.410
0.820,-0.421,0.168,-1.404,-50.171,18.677
0.860,-0.016,-0.205,-23.682,-42.297,-16.846
0.791,0.515,-0.452,-49.988,-31.799,-48.096
0.658,0.976,-0.493,-77.698,-20.020,-75.378
0.580,1.336,-0.465,-96.191,-14.160,-91.492
0.552,1.654,-0.442,-102.295,-15.808,-93.750
0.553,1.951,-0.383,-97.473,-20.569,-84.839
0.542,2.150,-0.278,-87.646,-23.193,-72.021
0.511,2.251,-0.139,-72.327,-20.020,-60.364
0.494,2.245,-0.019,-53.162,-14.526,-50.415
0.443,2.203,0.072,-31.738,-11.353,-41.077
0.330,2.154,0.117,-9.644,-10.376,-33.020
0.295,2.168,0.169,12.268,-8.911,-24.475
0.173,2.098,0.161,37.476,-13.062,-25.818
0.146,2.036,0.195,41.687,-1.038,-30.579
-0.022,1.851,0.221,34.668,2.075,-25.085
-0.136,1.673,0.223,22.766,-23.376,-13.245
-0.220,1.498,0.208,14.832,-44.739,4.639
-0.191,1.332,0.177,8.362,-45.288,25.513
-0.159,1.150,0.178,-0.854,-49.377,41.443
-0.096,0.998,0.189,-10.803,-53.894,52.185
-0.057,0.873,0.236,-21.118,-49.683,57.556
-0.025,0.780,0.296,-29.602,-38.086,57.617
-0.012,0.701,0.375,-35.950,-24.475,51.575
0.001,0.653,0.462,-37.292,-9.338,41.016
0.002,0.648,0.536,-33.264,4.944,30.518
-0.022,0.631,0.619,-27.588,14.160,19.714
-0.016,0.611,0.698,-22.278,19.470,10.620
-0.014,0.589,0.752,-14.099,20.569,4.333
-0.015,0.568,0.801,-4.333,20.081,-0.977
-0.018,0.529,0.825,2.930,21.423,-2.441
0.000,0.494,0.855,6.226,25.146,1.709
0.049,0.460,0.873,6.653,29.358,11.902
0.089,0.433,0.882,4.150,29.602,22.949
0.125,0.406,0.902,-3.235,25.574,30.518
0.138,0.380,0.941,-12.451,20.325,34.668
0.172,0.378,0.974,-20.020,15.137,36.560
0.195,0.388,1.013,-25.330,9.705,36.194
0.196,0.395,1.052,-26.733,4.761,33.081
0.197,0.401,1.062,-23.071,3.052,29.114
0.192,0.404,1.056,-16.174,5.615,25.269
0.188,0.414,1.027,-7.935,9.094,21.118
0.173,0.398,0.995,-1.038,10.620,16.602
0.158,0.368,0.967,2.625,10.437,13.550
0.119,0.355,0.947,3.967,9.949,12.146
0.090,0.359,0.934,3.479,10.315,11.536
0.082,0.363,0.928,2.319,11.353,11.292
0.091,0.386,0.912,1.038,9.827,12.024
0.100,0.420,0.914,-1.587,5.066,12.695
0.090,0.445,0.932,-4.578,0.610,11.902
0.080,0.478,0.952,-4.883,-1.404,9.521
0.069,0.505,0.958,-2.930,-0.977,5.066
0.054,0.520,0.961,0.610,1.892,-0.427
0.054,0.520,0.950,5.493,6.287,-4.028
0.054,0.524,0.925,10.193,9.460,-5.615
0.042,0.520,0.902,13.184,10.742,-6.042
0.033,0.500,0.887,13.611,12.024,-5.493
0.033,0.481,0.877,13.000,13.123,-4.395
0.054,0.474,0.863,12.146,13.794,-2.258
0.076,0.466,0.858,10.132,12.634,-0.732
0.096,0.470,0.860,6.958,10.071,-0.305
0.089,0.469,0.882,4.395,8.606,-0.671
0.094,0.468,0.888,4.822,9.033,-1.343
0.091,0.474,0.888,7.080,10.010,-2.502
0.079,0.477,0.880,9.277,9.460,-4.211
0.076,0.479,0.858,10.742,8.606,-4.761
0.061,0.477,0.838,11.414,7.812,-3.601
0.057,0.481,0.828,10.620,6.836,-1.831
0.064,0.483,0.827,9.155,5.127,0.793
0.065,0.476,0.831,7.202,2.625,4.517
0.074,0.476,0.834,4.517,0.122,7.385
0.084,0.479,0.836,2.441,-1.709,9.155
0.091,0.478,0.841,1.099,-2.075,9.460
0.092,0.473,0.846,0.183,-1.404,8.606
0.093,0.479,0.851,0.122,-0.183,7.019
0.115,0.495,0.855,0.366,0.977,5.188
0.118,0.499,0.859,0.427,1.953,2.441
0.094,0.504,0.877,0.977,2.014,-0.244
0.100,0.514,0.868,3.296,2.319,-1.404
0.098,0.523,0.865,5.371,2.930,-1.465
0.092,0.499,0.850,6.714,2.930,-1.099
0.078,0.490,0.845,7.202,1.038,0.183
0.075,0.493,0.836,7.507,-1.587,2.380
0.074,0.487,0.836,7.202,-3.174,3.784
0.078,0.477,0.838,6.287,-3.418,4.150
0.074,0.474,0.839,5.005,-2.930,3.601
0.070,0.478,0.834,3.601,-2.319,2.991
0.065,0.476,0.832,2.136,-1.587,2.686
0.060,0.479,0.826,1.404,-0.488,2.319
0.055,0.479,0.819,1.465,0.305,2.014
0.064,0.478,0.813,1.343,1.343,2.258
0.062,0.473,0.813,1.099,2.319,2.258
0.063,0.475,0.809,1.038,2.686,2.014
0.074,0.488,0.808,1.282,2.747,2.197
0.068,0.493,0.828,0.732,3.906,2.380
0.076,0.486,0.839,0.549,5.371,3.357
0.080,0.490,0.852,0.671,5.554,4.028
0.086,0.501,0.865,0.610,4.150,4.700
0.080,0.495,0.875,0.122,2.991,6.165
0.083,0.496,0.881,-0.244,1.953,7.080
0.088,0.497,0.876,-0.488,0.122,7.202
0.090,0.497,0.873,-1.160,-2.258,7.202
0.082,0.497,0.876,-1.038,-3.784,7.446
0.086,0.505,0.870,-0.488,-3.052,7.751
0.082,0.511,0.867,0.549,-0.854,7.019
0.089,0.509,0.862,2.319,1.770,5.859
0.092,0.510,0.854,3.906,3.113,5.127
0.086,0.513,0.848,4.395,3.540,4.089
0.077,0.515,0.844,4.150,3.906,3.845

-0.251,-0.695,2.308,-18.250,31.555,-29.602
-0.284,-0.920,2.493,-24.597,25.818,-27.222
-0.271,-1.145,2.547,-29.175,16.296,-19.714
-0.180,-1.390,2.482,-28.381,2.014,-1.160
-0.046,-1.580,2.371,-25.269,-19.470,24.841
0.107,-1.704,2.249,-18.494,-45.105,53.833
0.303,-1.677,2.040,-4.272,-65.613,79.102
0.564,-1.531,1.676,15.991,-74.707,89.966
0.798,-1.332,1.144,29.663,-73.608,78.491
0.879,-1.104,0.595,27.893,-63.416,40.588
0.986,-0.806,0.029,12.207,-33.691,-14.038
0.884,-0.388,-0.384,-18.982,-3.845,-77.881
0.696,0.120,-0.661,-58.167,12.634,-135.437
0.503,0.722,-0.826,-87.708,15.015,-168.274
0.269,1.481,-0.931,-100.769,7.019,-172.302
0.056,2.227,-1.005,-98.511,3.113,-156.189
-0.061,2.645,-1.026,-91.980,8.362,-138.672
-0.005,2.934,-0.889,-89.233,16.724,-116.272
0.076,3.224,-0.617,-82.886,18.066,-82.520
0.052,3.322,-0.322,-71.716,11.353,-52.917
0.104,3.274,-0.082,-51.819,4.517,-29.602
0.102,3.098,0.086,-26.550,-2.563,-12.329
-0.004,2.806,0.143,-1.770,-17.700,-4.456
-0.030,2.464,0.072,25.391,-31.860,16.357
0.077,2.149,-0.023,44.739,-42.725,44.800
0.214,1.858,-0.033,48.218,-54.260,71.594
0.349,1.632,0.016,42.847,-66.284,87.341
0.375,1.434,0.061,36.682,-75.562,92.651
0.489,1.206,0.080,30.518,-63.171,79.102
0.492,1.028,0.092,16.785,-43.823,72.205
0.500,0.914,0.135,2.319,-39.917,60.303
0.461,0.829,0.200,-6.592,-33.813,48.340
0.406,0.773,0.255,-11.841,-23.987,39.551
0.362,0.728,0.313,-15.259,-12.085,31.311
0.312,0.694,0.398,-16.418,-0.366,22.034
0.267,0.670,0.493,-14.771,10.376,13.550
0.249,0.645,0.551,-10.986,20.203,6.775
0.210,0.619,0.612,-7.874,26.794,0.488
0.193,0.601,0.672,-5.432,29.968,-5.066
0.151,0.585,0.729,-2.808,32.837,-9.216
0.116,0.565,0.779,-0.427,36.133,-12.207
0.098,0.549,0.831,3.662,38.574,-14.404
0.066,0.557,0.871,8.118,41.016,-15.991
0.051,0.549,0.886,13.977,46.387,-14.832
0.090,0.552,0.882,19.287,52.612,-9.338
0.125,0.524,0.858,21.240,52.368,-2.319
0.132,0.467,0.861,17.578,49.133,2.075
0.115,0.391,0.884,13.672,47.058,8.057
0.130,0.351,0.897,7.935,45.471,17.944
0.153,0.320,0.910,1.160,42.053,27.039
0.158,0.313,0.922,-3.967,34.363,30.640
0.164,0.313,0.922,-4.517,30.029,35.034
0.186,0.314,0.906,-2.075,30.640,38.208
0.195,0.326,0.879,0.366,31.006,36.255
0.187,0.320,0.859,0.366,30.334,29.663
0.176,0.308,0.858,-3.418,29.480,23.437
0.153,0.302,0.855,-8.667,21.790,23.865
0.136,0.331,0.861,-8.301,8.545,20.203
0.147,0.353,0.861,-5.005,-1.221,17.700
0.138,0.368,0.871,-1.221,-7.690,18.188
0.139,0.388,0.895,2.258,-9.338,18.982
0.140,0.401,0.903,5.371,-6.531,16.602
0.130,0.410,0.920,9.277,-1.343,11.658
0.124,0.416,0.931,13.184,5.249,5.432
0.135,0.427,0.939,16.418,12.573,-0.427
0.138,0.448,0.947,20.874,20.142,-5.066
0.130,0.466,0.950,24.719,26.428,-9.338
0.126,0.482,0.949,27.710,32.166,-12.024
0.139,0.506,0.950,31.250,35.950,-10.559
0.136,0.531,0.955,33.569,35.156,-8.972
0.121,0.526,0.944,32.043,29.114,-9.338
0.108,0.503,0.948,27.710,19.287,-6.653
0.095,0.490,0.961,22.949,6.409,0.549
0.100,0.475,0.966,20.691,-5.798,9.155
0.115,0.464,0.970,20.874,-13.794,16.846
0.125,0.453,0.967,22.156,-17.822,23.071
0.138,0.437,0.954,22.705,-18.738,25.940
0.157,0.421,0.943,21.301,-17.212,26.428
0.150,0.399,0.949,18.738,-13.916,24.658
0.139,0.386,0.961,16.785,-10.193,21.301
0.134,0.377,0.962,16.357,-7.507,17.883
0.122,0.377,0.963,17.578,-6.592,15.808
0.119,0.378,0.957,20.325,-7.080,15.198
0.108,0.369,0.946,22.461,-8.972,15.320
0.099,0.344,0.942,23.560,-11.780,14.893
0.087,0.325,0.929,26.184,-12.878,15.869
0.097,0.319,0.898,29.114,-13.062,17.761
0.099,0.305,0.874,29.724,-13.245,18.738
0.097,0.285,0.855,28.320,-13.489,18.677
0.095,0.276,0.840,26.184,-12.512,17.761
0.100,0.266,0.829,22.522,-11.230,16.663
0.105,0.262,0.826,17.761,-10.071,15.747
0.100,0.277,0.835,12.329,-8.667,12.939
0.100,0.299,0.851,7.263,-6.287,9.521
0.106,0.309,0.868,3.296,-3.113,6.348
0.080,0.317,0.884,0.854,-1.465,3.357
0.060,0.336,0.894,0.183,-1.038,1.587
0.047,0.342,0.897,0.488,-1.038,2.258
0.053,0.357,0.909,0.854,-0.671,3.662
0.063,0.354,0.916,1.831,-0.122,5.859
0.077,0.382,0.922,2.136,-0.732,7.446
0.071,0.388,0.926,2.014,-1.770,7.507
0.085,0.400,0.933,2.136,-1.465,6.409
0.090,0.416,0.945,3.723,0.488,5.371
0.086,0.423,0.937,5.310,2.136,3.479
0.082,0.427,0.922,4.822,2.808,0.671
0.058,0.420,0.922,3.418,2.869,-1.587
0.039,0.421,0.928,3.235,3.113,-2.319
0.036,0.422,0.917,4.272,2.808,-1.709
0.048,0.428,0.911,5.371,1.892,-0.183
0.046,0.422,0.914,5.859,0.916,2.014
0.059,0.421,0.911,5.493,-0.244,3.784
0.064,0.420,0.908,5.554,-1.465,5.371
0.076,0.433,0.910,5.371,-1.831,6.104
0.074,0.421,0.908,5.554,-1.099,6.592
0.079,0.411,0.912,6.042,0.793,6.592
0.084,0.402,0.911,7.324,2.563,5.859
0.097,0.422,0.913,8.789,3.601,5.615
0.090,0.415,0.913,8.118,4.395,5.615

0.001,-0.918,2.053,-39.185,3.662,-2.197
-0.089,-1.078,2.139,-36.743,2.075,-1.953
-0.140,-1.253,2.155,-29.053,2.991,0.000
-0.071,-1.400,2.105,-20.752,6.958,2.747
0.022,-1.447,1.945,-7.935,8.179,7.812
0.108,-1.455,1.756,2.808,4.272,15.625
0.268,-1.476,1.561,3.418,-1.709,21.179
0.435,-1.413,1.379,-5.249,-10.864,21.423
0.619,-1.273,1.153,-14.465,-22.888,16.357
0.715,-1.061,0.868,-25.208,-33.752,0.977
0.728,-0.792,0.573,-34.790,-36.804,-25.696
0.655,-0.419,0.249,-39.856,-31.067,-55.359
0.578,0.019,-0.058,-43.457,-21.545,-79.773
0.519,0.485,-0.325,-49.194,-15.869,-98.755
0.339,0.991,-0.463,-59.753,-16.724,-112.305
0.278,1.471,-0.520,-65.918,-15.076,-116.211
0.144,1.979,-0.615,-66.589,-7.202,-112.610
0.042,2.455,-0.658,-68.726,7.324,-105.225
0.161,2.787,-0.529,-78.247,23.193,-99.304
0.109,2.978,-0.258,-88.623,25.757,-101.013
-0.027,3.071,0.015,-85.144,13.733,-101.624
-0.099,3.056,0.186,-64.087,1.160,-90.332
-0.184,2.941,0.296,-36.316,-9.277,-67.688
-0.222,2.669,0.312,-8.057,-22.095,-33.020
-0.267,2.427,0.285,17.517,-38.269,-6.226
-0.196,2.128,0.198,36.865,-54.077,25.330
-0.051,1.893,0.150,48.218,-70.129,60.486
0.063,1.651,0.106,54.626,-85.754,78.491
0.201,1.442,0.058,46.570,-85.022,90.515
0.237,1.261,0.055,29.541,-88.379,95.764
0.270,1.095,0.084,9.644,-85.327,90.332
0.297,0.946,0.112,-4.944,-69.824,80.444
0.312,0.844,0.156,-15.686,-48.340,70.740
0.314,0.760,0.215,-24.414,-29.846,59.143
0.303,0.697,0.304,-31.372,-13.855,46.936
0.261,0.665,0.409,-33.020,1.709,36.194
0.247,0.620,0.482,-30.518,15.259,26.917
0.228,0.592,0.558,-26.001,25.269,19.409
0.185,0.589,0.634,-19.165,29.602,13.000
0.184,0.601,0.704,-12.146,34.119,6.958
0.180,0.598,0.752,-6.165,43.274,1.404
0.160,0.596,0.805,-1.526,52.185,-4.456
0.175,0.607,0.856,3.296,57.739,-10.193
0.176,0.590,0.911,7.690,59.753,-12.878
0.163,0.557,0.930,9.033,59.937,-12.451
0.144,0.530,0.936,7.690,60.120,-6.775
0.136,0.511,0.944,7.446,56.519,0.732
0.148,0.498,0.947,7.996,54.077,10.193
0.148,0.492,0.935,10.193,50.720,20.752
0.148,0.485,0.926,8.606,46.082,30.396
0.191,0.454,0.914,2.930,41.626,39.307
0.194,0.418,0.898,-2.808,33.325,43.518
0.221,0.386,0.884,-4.150,29.175,47.913
0.246,0.365,0.871,-4.578,29.175,52.551
0.259,0.345,0.871,-5.981,25.452,54.138
0.283,0.307,0.862,-8.667,19.165,54.199
0.292,0.251,0.854,-11.963,13.306,52.124
0.299,0.248,0.868,-18.677,6.348,51.270
0.275,0.244,0.903,-23.132,-7.202,50.354
0.266,0.224,0.942,-23.560,-18.921,41.748
0.240,0.224,0.977,-18.799,-23.682,36.499
0.227,0.229,1.003,-11.658,-21.484,31.555
0.203,0.251,1.028,-2.686,-16.785,25.330
0.181,0.279,1.038,8.423,-12.390,18.005
0.150,0.300,1.019,18.799,-7.996,10.193
0.114,0.316,1.008,26.978,-4.089,3.784
0.095,0.324,0.990,31.860,-0.793,-1.099
0.079,0.333,0.974,34.485,2.075,-4.883
0.053,0.356,0.968,35.645,4.700,-5.981
0.050,0.381,0.959,35.767,7.385,-3.723
0.055,0.391,0.958,33.508,8.423,-1.404
0.050,0.380,0.963,29.236,4.700,0.244
0.051,0.363,0.967,24.414,-2.563,2.441
0.039,0.356,0.970,20.020,-9.888,4.150
0.023,0.357,0.971,15.869,-14.587,4.578
0.019,0.345,0.970,12.695,-15.564,4.517
0.022,0.339,0.966,10.864,-14.099,5.432
0.015,0.332,0.962,10.376,-11.658,6.409
0.001,0.324,0.960,10.803,-9.583,6.775
-0.029,0.315,0.958,12.024,-8.545,7.080
-0.029,0.298,0.951,14.709,-7.202,8.301
-0.024,0.299,0.941,17.761,-5.432,10.437
0.006,0.309,0.930,19.897,-5.371,11.658
0.029,0.323,0.924,19.836,-6.653,10.803
0.019,0.321,0.930,18.555,-8.179,9.460
0.020,0.329,0.938,17.456,-9.338,8.240
0.027,0.333,0.938,17.334,-9.399,6.592
0.023,0.355,0.946,19.226,-8.911,6.287
-0.004,0.372,0.949,22.156,-8.301,6.531
-0.007,0.357,0.950,23.682,-8.728,5.798
-0.022,0.335,0.943,24.963,-10.254,5.798
-0.032,0.327,0.929,26.733,-11.108,5.798
-0.032,0.323,0.910,27.527,-10.071,5.005
-0.035,0.318,0.900,26.550,-7.812,3.418
-0.033,0.319,0.894,24.658,-4.700,1.404
-0.039,0.326,0.889,22.400,-1.831,-0.122
-0.042,0.325,0.887,19.714,0.549,-1.221
-0.039,0.329,0.883,16.541,2.869,-1.221
-0.037,0.344,0.888,13.489,4.761,-0.366
-0.023,0.346,0.907,10.071,5.615,1.221
-0.022,0.341,0.921,7.568,5.188,2.441
-0.022,0.343,0.935,5.554,3.967,3.113
-0.027,0.343,0.954,3.662,3.601,3.418
-0.021,0.339,0.964,2.380,4.456,3.174
-0.026,0.327,0.975,2.258,5.127,2.686
-0.023,0.314,0.982,3.113,5.554,2.563
-0.012,0.313,0.974,4.822,5.859,3.235
0.001,0.313,0.970,5.554,6.287,4.395
0.010,0.303,0.966,5.371,7.019,5.249
0.020,0.291,0.961,4.822,8.240,6.348
0.037,0.291,0.958,3.784,9.521,6.714
0.046,0.289,0.957,1.953,9.521,6.409
0.052,0.281,0.966,-0.977,8.362,5.371
0.049,0.279,0.974,-3.357,7.629,4.700
0.058,0.289,0.983,-4.456,7.263,4.211
0.055,0.307,0.983,-4.761,7.690,3.906
0.062,0.316,1.002,-4.395,8.240,3.357
0.061,0.322,1.002,-3.052,8.362,3.296
0.065,0.328,0.999,-1.221,7.812,3.540

-0.234,-1.126,1.922,-105.286,-65.369,23.926
-0.351,-1.371,1.987,-115.295,-68.054,25.513
-0.341,-1.553,2.029,-109.497,-70.435,33.447
-0.315,-1.704,1.947,-93.750,-74.646,45.715
-0.246,-1.796,1.856,-78.125,-77.820,55.603
-0.107,-1.811,1.694,-64.575,-79.163,54.016
0.062,-1.703,1.458,-56.091,-74.402,46.448
0.218,-1.543,1.150,-55.054,-63.965,33.813
0.416,-1.276,0.854,-69.214,-49.683,8.057
0.524,-0.924,0.624,-86.243,-41.260,-26.001
0.463,-0.510,0.359,-92.651,-44.128,-68.298
0.242,-0.012,0.009,-86.365,-46.387,-104.431
0.161,0.526,-0.405,-67.871,-42.603,-115.662
0.028,1.184,-0.747,-51.086,-48.889,-104.736
-0.237,1.963,-0.904,-49.194,-70.129,-83.984
-0.423,2.670,-0.914,-52.246,-80.627,-60.181
-0.519,3.169,-0.877,-54.382,-66.223,-45.410
-0.497,3.420,-0.726,-64.880,-45.593,-44.556
-0.601,3.479,-0.495,-77.942,-35.522,-45.105
-0.661,3.376,-0.303,-81.421,-30.701,-34.180
-0.640,3.133,-0.151,-73.181,-27.588,-12.939
-0.659,2.777,-0.088,-55.664,-35.400,5.188
-0.540,2.393,-0.137,-35.645,-45.898,35.706
-0.331,2.024,-0.187,-25.024,-56.702,81.238
-0.098,1.702,-0.159,-27.466,-70.557,116.638
0.093,1.486,-0.069,-34.729,-79.834,138.794
0.251,1.306,0.040,-42.969,-79.956,141.785
0.374,1.139,0.147,-48.828,-71.350,129.333
0.413,0.986,0.248,-49.561,-56.152,107.483
0.396,0.902,0.329,-42.053,-39.612,80.627
0.313,0.850,0.382,-30.212,-24.658,53.162
0.258,0.818,0.431,-19.714,-9.216,29.053
0.135,0.787,0.449,-8.850,-2.930,15.747
0.079,0.811,0.521,1.831,-2.319,-3.784
-0.010,0.829,0.605,10.742,3.601,-13.428
-0.097,0.854,0.635,18.005,7.812,-19.348
-0.157,0.881,0.667,22.217,12.085,-25.635
-0.205,0.893,0.695,23.376,12.695,-27.283
-0.242,0.894,0.716,24.658,8.179,-26.001
-0.275,0.888,0.722,28.809,5.798,-23.132
-0.296,0.873,0.720,36.377,8.484,-18.677
-0.313,0.844,0.715,43.640,11.108,-13.855
-0.313,0.799,0.702,48.706,11.536,-10.193
-0.314,0.750,0.684,51.514,11.230,-5.737
-0.321,0.694,0.675,50.171,10.986,0.610
-0.328,0.631,0.685,44.678,9.155,7.263
-0.335,0.573,0.703,39.246,6.104,13.428
-0.334,0.532,0.705,35.767,4.089,20.264
-0.328,0.487,0.686,32.288,2.380,26.489
-0.314,0.447,0.675,26.367,0.122,31.738
-0.314,0.411,0.675,20.142,-2.808,34.851
-0.307,0.394,0.679,15.808,-4.700,36.255
-0.303,0.374,0.673,14.160,-4.700,35.767
-0.307,0.359,0.658,14.832,-1.892,33.813
-0.298,0.349,0.634,15.869,3.296,31.555
-0.297,0.345,0.634,15.808,9.399,29.236
-0.262,0.340,0.641,13.306,17.090,26.367
-0.217,0.335,0.674,8.728,25.146,21.423
-0.221,0.331,0.730,4.028,31.616,13.977
-0.226,0.328,0.795,0.732,35.156,6.226
-0.233,0.327,0.851,-0.732,35.339,0.183
-0.256,0.352,0.892,-0.366,34.973,-2.991
-0.253,0.380,0.946,-0.732,34.363,-6.104
-0.273,0.396,0.961,-1.953,32.166,-9.216
-0.299,0.401,0.968,-2.747,29.724,-9.766
-0.309,0.421,0.963,-4.700,25.818,-5.371
-0.325,0.448,0.926,-7.385,18.921,-0.916
-0.335,0.463,0.892,-12.817,10.864,3.296
-0.342,0.466,0.872,-17.090,3.906,8.301
-0.356,0.474,0.852,-15.015,-0.977,12.939
-0.345,0.495,0.827,-7.751,-1.099,15.076
-0.325,0.505,0.820,0.610,1.709,16.113
-0.307,0.509,0.822,8.667,2.319,15.503
-0.284,0.505,0.819,16.846,0.977,11.047
-0.277,0.485,0.817,23.743,0.305,5.188
-0.285,0.471,0.818,28.198,0.977,2.502
-0.291,0.456,0.807,30.090,1.709,2.197
-0.289,0.437,0.787,30.151,2.319,3.662
-0.288,0.426,0.761,28.198,1.709,6.348
-0.273,0.416,0.734,23.132,0.488,9.033
-0.266,0.411,0.730,17.395,-0.854,10.742
-0.261,0.410,0.729,12.939,-0.977,9.583
-0.256,0.410,0.733,9.949,0.305,7.263
-0.267,0.411,0.760,7.629,2.014,4.761
-0.262,0.403,0.787,5.493,3.113,2.625
-0.279,0.409,0.826,3.906,3.235,0.977
-0.291,0.408,0.860,2.991,3.357,-0.488
-0.293,0.417,0.874,4.639,4.883,-1.282
-0.300,0.429,0.876,7.385,7.263,-2.136
-0.309,0.420,0.890,10.498,8.484,-3.113
-0.309,0.423,0.882,13.000,9.338,-4.211
-0.305,0.420,0.872,15.808,9.033,-5.127
-0.307,0.417,0.870,16.663,7.568,-5.066
-0.308,0.414,0.872,15.930,5.371,-4.578
-0.295,0.416,0.876,14.160,2.686,-3.479
-0.278,0.422,0.882,12.512,0.549,-1.587
-0.278,0.429,0.898,10.498,-0.427,-0.061
-0.277,0.418,0.895,8.667,-0.549,0.244
-0.281,0.416,0.894,7.263,-0.366,-0.061
-0.280,0.415,0.896,6.836,0.671,-0.610
-0.261,0.423,0.899,7.385,2.747,-1.099
-0.259,0.432,0.906,8.606,4.456,-2.808
-0.264,0.438,0.911,9.583,5.432,-5.981
-0.284,0.450,0.926,10.803,5.798,-9.460
-0.305,0.457,0.937,13.611,6.836,-10.925
-0.311,0.456,0.920,17.639,7.935,-9.705
-0.320,0.453,0.905,20.874,8.301,-7.446
-0.319,0.434,0.879,21.973,8.545,-5.310
-0.313,0.405,0.860,21.179,8.728,-2.686
-0.303,0.392,0.854,19.165,8.789,-0.122
-0.282,0.386,0.855,15.747,9.399,1.648
-0.271,0.378,0.869,11.475,9.705,2.258
-0.262,0.367,0.885,8.240,10.010,2.197
-0.252,0.374,0.899,6.165,10.559,0.977
-0.249,0.381,0.904,5.005,11.536,-0.366
-0.269,0.385,0.904,3.845,12.573,-2.075
-0.289,0.387,0.914,3.479,12.634,-3.052
-0.292,0.379,0.915,4.822,12.268,-1.648
-0.282,0.380,0.903,6.897,11.475,1.709

-0.496,-0.948,1.574,-42.664,118.408,-74.158
-0.563,-1.141,1.638,-49.194,117.004,-62.378
-0.660,-1.345,1.729,-56.458,112.305,-46.936
-0.709,-1.537,1.807,-59.021,105.408,-33.875
-0.684,-1.641,1.749,-50.537,102.905,-24.658
-0.550,-1.664,1.581,-34.851,108.215,-16.846
-0.300,-1.670,1.407,-25.574,113.342,-8.423
-0.036,-1.639,1.256,-32.227,112.610,-2.258
0.183,-1.516,1.140,-48.340,107.727,-0.488
0.467,-1.339,0.955,-61.035,108.459,-1.282
0.746,-1.095,0.768,-72.632,112.305,-7.812
0.920,-0.763,0.553,-80.139,111.450,-23.499
1.054,-0.416,0.336,-79.773,113.159,-47.363
1.155,0.006,0.038,-69.458,120.911,-73.608
1.112,0.482,-0.393,-54.871,133.667,-97.473
1.138,0.982,-0.803,-46.570,151.123,-111.389
1.160,1.495,-1.011,-54.077,158.325,-107.849
1.190,1.969,-0.992,-67.932,145.264,-91.858
1.225,2.268,-0.851,-78.979,120.483,-73.303
1.338,2.415,-0.710,-83.496,89.539,-53.589
1.290,2.473,-0.504,-81.665,53.528,-37.109
1.240,2.429,-0.345,-68.115,24.902,-26.367
1.078,2.243,-0.231,-47.668,9.888,-15.259
1.089,2.018,-0.231,-23.071,0.916,-0.366
0.965,1.796,-0.186,-4.089,-13.611,13.977
0.826,1.580,-0.159,10.254,-30.457,23.560
0.847,1.317,-0.173,20.264,-33.447,31.311
0.800,1.120,-0.172,26.428,-38.208,44.067
0.756,0.982,-0.164,29.541,-51.147,53.345
0.714,0.849,-0.149,29.114,-55.603,54.077
0.716,0.722,-0.080,26.184,-48.218,50.537
0.694,0.618,0.002,21.606,-40.222,43.579
0.660,0.539,0.107,18.982,-34.851,35.889
0.632,0.500,0.209,18.127,-28.564,30.334
0.640,0.494,0.285,18.005,-22.705,28.931
0.656,0.523,0.373,18.555,-20.020,28.320
0.665,0.549,0.453,18.982,-18.982,25.757
0.676,0.588,0.505,20.203,-18.494,20.813
0.689,0.622,0.537,21.301,-18.616,16.785
0.708,0.639,0.566,20.813,-18.005,13.855
0.748,0.630,0.609,19.348,-14.832,10.010
0.759,0.630,0.680,16.968,-12.878,5.981
0.740,0.631,0.734,13.489,-16.296,2.258
0.719,0.651,0.774,10.742,-22.278,-0.427
0.689,0.663,0.802,12.573,-28.625,-0.122
0.643,0.669,0.818,18.127,-35.095,0.671
0.599,0.658,0.817,27.344,-41.260,2.319
0.580,0.644,0.794,38.147,-44.617,6.470
0.568,0.604,0.770,51.819,-45.654,12.817
0.556,0.576,0.718,62.012,-44.739,20.142
0.553,0.533,0.659,65.979,-43.335,27.283
0.543,0.492,0.612,65.308,-45.227,33.569
0.533,0.431,0.627,64.758,-51.086,38.696
0.527,0.398,0.607,57.739,-54.626,42.603
0.553,0.368,0.610,50.781,-55.786,44.861
0.565,0.327,0.630,46.204,-54.993,45.166
0.556,0.288,0.652,42.175,-52.185,41.931
0.551,0.261,0.663,39.856,-46.021,37.659
0.551,0.233,0.667,39.307,-37.842,35.034
0.560,0.213,0.677,38.269,-31.860,33.691
0.553,0.186,0.707,35.461,-30.701,33.386
0.538,0.154,0.749,33.142,-32.471,33.997
0.531,0.139,0.774,32.410,-33.569,36.072
0.540,0.140,0.784,32.349,-33.936,38.635
0.546,0.126,0.799,30.884,-35.217,39.673
0.534,0.102,0.820,28.442,-37.964,38.147
0.532,0.090,0.840,26.245,-40.222,36.194
0.540,0.094,0.854,25.452,-39.612,34.851
0.534,0.091,0.864,25.330,-36.560,32.043
0.525,0.092,0.864,26.001,-33.264,28.137
0.503,0.104,0.858,27.161,-32.104,24.536
0.476,0.116,0.847,28.076,-32.410,21.790
0.441,0.116,0.837,27.466,-33.875,19.836
0.413,0.115,0.831,25.879,-36.255,18.433
0.392,0.121,0.829,24.048,-38.818,18.616
0.383,0.118,0.834,22.278,-40.222,20.020
0.378,0.116,0.839,20.752,-41.565,22.034
0.381,0.124,0.844,19.470,-44.128,24.719
0.375,0.133,0.839,17.639,-48.340,27.588
0.368,0.137,0.839,15.076,-52.917,28.870
0.361,0.135,0.852,12.207,-56.824,28.687
0.360,0.126,0.865,9.460,-58.655,27.100
0.343,0.128,0.884,7.385,-57.373,22.766
0.321,0.126,0.888,6.531,-52.185,15.442
0.302,0.145,0.895,6.409,-44.250,7.568
0.274,0.157,0.892,7.263,-35.828,0.916
0.262,0.159,0.888,9.766,-29.236,-2.502
0.249,0.163,0.880,11.475,-26.062,-3.601
0.236,0.172,0.877,13.184,-26.794,-2.563
0.215,0.174,0.870,13.489,-30.334,-0.977
0.170,0.174,0.874,13.428,-35.217,1.587
0.129,0.166,0.889,13.672,-40.283,5.615
0.118,0.156,0.883,14.221,-43.030,11.047
0.117,0.149,0.882,14.343,-44.678,17.517
0.148,0.143,0.880,12.695,-45.471,23.071
0.175,0.144,0.890,9.155,-45.349,25.818
0.185,0.152,0.921,5.249,-44.800,23.987
0.184,0.150,0.936,1.587,-42.847,19.043
0.176,0.159,0.962,-0.610,-37.903,13.062
0.175,0.165,0.974,-0.488,-30.640,7.263
0.136,0.172,0.959,0.427,-24.109,1.770
0.135,0.198,1.008,2.319,-18.250,-0.977
0.126,0.186,1.002,6.165,-14.587,-0.916
0.138,0.208,0.996,11.169,-14.343,0.732
0.147,0.212,1.001,14.648,-16.602,1.831
0.141,0.198,0.992,16.541,-20.325,3.357
0.140,0.184,0.978,18.005,-24.353,5.859
0.135,0.178,0.965,18.921,-26.978,7.690
0.140,0.167,0.954,18.372,-27.527,8.972
0.139,0.161,0.960,16.724,-26.794,8.667
0.124,0.161,0.982,14.404,-24.780,7.263
0.114,0.154,1.001,13.062,-20.935,5.066
0.121,0.136,1.001,12.939,-16.357,2.930
0.114,0.126,1.006,12.390,-13.672,0.610
0.100,0.116,1.002,12.329,-13.550,-1.221
0.102,0.122,0.994,12.817,-13.916,-1.648
0.102,0.122,0.985,13.000,-13.245,-1.160
0.099,0.117,0.985,12.207,-11.414,-0.793
0.091,0.114,0.993,10.681,-9.521,-0.122

-0.180,-1.419,1.323,-38.513,7.935,12.146
-0.211,-1.644,1.235,-44.067,4.517,23.987
-0.251,-1.823,1.160,-50.842,-4.089,41.748
-0.257,-1.867,1.091,-56.641,-13.367,58.289
-0.238,-1.779,1.070,-63.232,-15.991,68.298
-0.166,-1.727,1.064,-76.355,-12.024,70.435
-0.029,-1.770,1.095,-95.947,-9.583,62.256
0.102,-1.774,1.114,-110.535,-16.296,49.622
0.300,-1.663,1.034,-114.990,-26.672,47.180
0.410,-1.418,0.780,-118.042,-33.813,49.438
0.476,-1.095,0.513,-120.667,-32.715,35.522
0.476,-0.717,0.292,-125.732,-23.926,16.357
0.485,-0.221,0.043,-125.305,-15.869,-1.953
0.539,0.270,-0.211,-120.789,-13.855,-20.813
0.486,0.765,-0.418,-118.774,-21.240,-43.152
0.203,1.370,-0.498,-114.075,-26.855,-62.805
0.065,2.209,-0.507,-100.708,-15.564,-70.862
-0.155,2.732,-0.354,-89.233,13.611,-88.135
-0.248,2.935,-0.201,-79.407,43.884,-114.258
-0.119,3.024,0.018,-66.101,48.950,-113.525
-0.125,3.014,0.289,-47.180,31.372,-87.524
-0.060,2.830,0.482,-22.339,7.019,-53.650
0.044,2.591,0.583,4.639,-17.151,-13.855
0.152,2.258,0.566,29.480,-39.917,31.250
0.194,1.941,0.502,45.227,-54.199,45.837
0.261,1.637,0.446,47.546,-60.303,46.936
0.311,1.374,0.382,42.236,-58.228,55.054
0.339,1.174,0.333,33.508,-55.847,56.580
0.340,1.023,0.324,22.034,-53.833,55.542
0.322,0.917,0.333,13.794,-51.636,48.889
0.284,0.850,0.358,10.132,-47.119,38.696
0.238,0.813,0.398,9.766,-39.856,28.259
0.206,0.792,0.451,11.108,-29.846,20.691
0.206,0.776,0.477,14.648,-19.531,16.968
0.202,0.810,0.526,15.442,-11.658,15.137
0.198,0.805,0.600,17.700,-8.545,9.644
0.222,0.834,0.654,17.029,-2.991,1.892
0.201,0.858,0.717,17.700,6.348,-2.075
0.212,0.869,0.794,16.479,17.944,-10.925
0.196,0.859,0.883,16.296,25.208,-22.766
0.161,0.835,0.951,19.226,32.593,-32.227
0.150,0.805,0.997,24.963,41.382,-36.499
0.146,0.772,1.016,30.884,45.105,-35.583
0.144,0.735,1.011,34.363,41.321,-30.579
0.128,0.689,0.993,34.912,32.776,-21.973
0.114,0.654,0.968,32.349,21.790,-11.475
0.094,0.623,0.931,29.053,9.460,-0.061
0.069,0.585,0.903,24.292,-1.221,10.742
0.041,0.536,0.861,20.752,-8.850,19.531
0.027,0.513,0.821,17.273,-11.780,28.564
0.002,0.486,0.795,14.465,-14.893,36.682
-0.009,0.445,0.778,12.024,-18.433,40.161
-0.012,0.413,0.766,9.888,-18.982,42.053
-0.013,0.402,0.771,8.911,-16.174,44.067
0.009,0.398,0.785,8.118,-11.597,44.678
0.020,0.388,0.799,8.423,-7.935,42.725
0.028,0.372,0.809,10.254,-4.639,39.795
0.043,0.347,0.825,13.916,-0.427,37.170
0.063,0.331,0.833,19.043,3.113,33.386
0.083,0.332,0.837,23.254,7.385,29.175
0.088,0.322,0.831,24.780,10.925,25.330
0.094,0.299,0.839,22.217,13.000,20.508
0.097,0.294,0.870,19.470,13.123,16.907
0.086,0.301,0.908,19.226,11.475,14.099
0.059,0.318,0.948,20.874,10.803,12.146
0.044,0.330,0.982,23.315,13.428,11.475
0.043,0.321,0.974,26.611,16.052,12.024
0.028,0.290,0.953,30.640,16.602,11.780
0.039,0.276,0.930,34.363,15.076,11.292
0.016,0.222,0.932,38.147,11.230,12.451
0.015,0.205,0.907,36.438,8.484,14.099
0.017,0.203,0.881,34.790,5.737,15.015
0.014,0.184,0.899,35.095,1.526,16.296
0.018,0.206,0.874,31.433,-1.587,18.372
0.027,0.219,0.873,29.297,-3.601,20.386
0.027,0.221,0.876,27.100,-4.639,21.423
0.038,0.209,0.865,24.597,-3.967,21.179
0.037,0.179,0.858,23.132,-2.991,20.508
0.030,0.153,0.845,21.912,-2.930,18.799
0.019,0.150,0.833,20.508,-3.784,16.235
0.007,0.158,0.833,19.226,-4.272,13.000
0.015,0.163,0.838,17.883,-3.723,9.705
0.006,0.166,0.839,16.174,-3.784,6.165
0.019,0.161,0.851,14.343,-5.615,3.052
0.045,0.157,0.872,14.099,-8.484,1.099
0.074,0.169,0.876,13.367,-10.742,-0.610
0.098,0.179,0.910,12.695,-13.550,-4.150
0.099,0.165,0.928,10.254,-14.832,-9.460
0.103,0.159,0.942,8.118,-12.756,-13.428
0.083,0.159,0.960,6.836,-8.118,-17.944
0.056,0.144,0.977,7.263,-2.625,-21.423
0.045,0.143,0.974,7.629,2.625,-22.888
0.031,0.148,0.972,9.094,6.165,-23.193
0.014,0.154,0.989,10.681,7.202,-22.400
0.009,0.176,0.984,11.719,7.263,-19.897
0.003,0.145,1.029,17.090,3.479,-16.235
0.009,0.144,1.005,18.433,-0.366,-11.108
0.013,0.146,1.002,19.836,-5.127,-5.676
0.020,0.131,0.984,19.592,-9.705,-0.610
0.020,0.122,0.983,17.700,-13.428,2.930
0.017,0.132,0.984,14.404,-14.771,5.493
0.031,0.152,0.960,13.306,-13.306,6.531
0.037,0.129,0.992,18.433,-12.451,7.141
0.030,0.150,0.958,16.968,-8.484,7.874
0.038,0.153,0.953,14.099,-1.953,7.385
0.049,0.149,0.953,13.184,4.028,6.592
0.064,0.151,0.953,12.817,7.812,6.531
0.069,0.152,0.956,11.414,7.019,6.287
0.063,0.150,0.965,9.399,3.235,5.737
0.055,0.152,0.965,7.996,-1.282,5.310
0.039,0.133,0.996,9.399,-5.737,4.517
0.026,0.127,0.996,8.423,-7.629,3.723
0.036,0.127,1.009,7.202,-6.409,3.052
0.052,0.141,1.022,8.972,-5.554,3.235
0.070,0.156,1.024,12.329,-5.432,4.028
0.079,0.162,1.027,15.198,-5.737,4.211
0.097,0.172,1.025,16.846,-6.348,3.174
0.113,0.173,1.016,17.761,-7.385,1.648
0.111,0.170,1.000,17.761,-10.071,-0.366

-0.277,-1.510,1.526,-87.646,44.189,20.813
-0.301,-1.718,1.608,-98.450,31.250,31.799
-0.288,-1.840,1.641,-100.281,18.738,41.565
-0.258,-1.903,1.615,-96.985,9.705,50.964
-0.085,-2.076,1.560,-96.863,6.287,58.838
0.131,-2.192,1.459,-97.961,0.793,63.171
0.339,-2.135,1.227,-97.656,-9.155,62.378
0.579,-2.069,1.033,-105.286,-17.090,61.035
0.804,-1.890,0.841,-119.141,-18.127,37.415
0.970,-1.615,0.594,-134.949,-15.381,6.653
1.070,-1.216,0.319,-149.048,-10.071,-31.128
1.010,-0.718,0.004,-161.682,-7.568,-75.684
0.811,-0.141,-0.311,-173.096,-2.625,-114.014
0.722,0.385,-0.628,-174.255,10.559,-132.629
0.558,1.031,-0.947,-176.025,16.846,-128.357
0.318,2.044,-1.164,-178.223,11.475,-107.971
-0.009,2.930,-1.202,-178.284,11.841,-90.759
-0.133,3.370,-0.999,-184.570,16.663,-88.745
-0.106,3.578,-0.697,-177.979,13.550,-78.613
-0.125,3.749,-0.370,-153.076,-1.587,-49.683
-0.151,3.745,-0.068,-117.859,-19.775,-16.113
-0.122,3.532,0.227,-78.308,-30.334,10.620
-0.117,3.188,0.406,-34.973,-34.485,23.437
-0.070,2.796,0.453,8.118,-29.480,23.987
0.018,2.406,0.366,46.875,-22.583,37.354
0.153,2.032,0.252,73.975,-23.254,50.720
0.259,1.712,0.188,84.839,-28.748,62.866
0.351,1.444,0.158,85.327,-32.654,67.322
0.425,1.238,0.149,79.041,-30.396,64.697
0.449,1.073,0.161,69.153,-23.132,55.969
0.463,0.935,0.196,57.068,-11.597,43.213
0.415,0.812,0.242,43.030,-3.357,34.546
0.425,0.702,0.310,33.813,3.174,19.653
0.375,0.615,0.396,25.452,9.521,14.343
0.297,0.573,0.486,21.912,10.925,12.268
0.205,0.560,0.597,22.888,12.329,7.324
0.158,0.516,0.654,26.978,17.761,3.784
0.135,0.471,0.680,28.809,22.705,3.967
0.120,0.443,0.710,30.090,21.851,4.395
0.108,0.433,0.758,30.640,19.409,1.770
0.107,0.428,0.797,28.809,20.264,-2.380
0.111,0.443,0.837,25.696,24.109,-7.446
0.094,0.449,0.854,21.545,29.785,-12.512
0.095,0.453,0.873,14.648,37.781,-15.869
0.066,0.448,0.904,10.803,41.138,-16.479
0.049,0.451,0.952,9.583,42.175,-13.977
0.041,0.435,0.955,8.240,42.053,-9.033
0.052,0.415,0.944,4.272,37.048,0.000
0.044,0.387,0.945,-0.427,26.001,11.536
0.038,0.352,0.943,-4.333,12.756,24.231
0.039,0.297,0.937,-4.883,2.075,36.987
0.044,0.236,0.930,-0.305,-5.554,49.438
0.075,0.190,0.911,8.057,-12.695,57.434
0.106,0.152,0.889,17.334,-18.555,59.143
0.117,0.113,0.875,25.330,-21.851,54.504
0.125,0.089,0.865,30.640,-20.325,44.739
0.127,0.076,0.867,33.142,-15.381,34.241
0.113,0.061,0.866,32.654,-9.888,24.536
0.102,0.057,0.877,30.273,-3.601,16.968
0.080,0.081,0.913,28.076,2.930,11.230
0.075,0.092,0.942,26.184,10.315,7.141
0.091,0.114,0.938,21.606,16.357,6.531
0.104,0.128,0.942,14.832,18.127,7.629
0.104,0.144,0.964,7.629,16.541,8.728
0.101,0.172,1.000,1.587,12.695,9.094
0.084,0.196,1.035,-1.465,8.301,8.423
0.078,0.212,1.060,-1.343,4.028,7.996
0.080,0.240,1.102,1.343,0.244,8.789
0.060,0.242,1.114,4.700,-3.540,8.850
0.042,0.232,1.122,8.606,-6.958,7.080
0.030,0.220,1.111,14.709,-8.728,5.005
0.021,0.218,1.090,22.949,-9.460,3.357
0.018,0.224,1.052,31.982,-10.498,1.465
0.030,0.233,1.007,39.551,-12.024,0.061
0.032,0.236,0.970,44.128,-13.977,-0.366
0.041,0.240,0.933,45.654,-15.930,-0.549
0.048,0.237,0.903,44.434,-17.578,0.366
0.063,0.232,0.869,40.588,-18.799,1.892
0.081,0.235,0.855,34.912,-20.081,3.662
0.089,0.225,0.854,28.625,-21.057,4.761
0.077,0.224,0.887,21.729,-20.569,3.174
0.057,0.217,0.928,16.602,-18.188,-0.122
0.036,0.210,0.966,14.099,-14.709,-3.357
0.021,0.203,0.988,13.733,-11.108,-7.324
0.003,0.197,1.009,15.259,-7.996,-10.071
-0.011,0.192,1.021,17.395,-5.432,-12.146
-0.013,0.194,1.025,20.447,-3.479,-13.367
-0.021,0.200,1.020,23.560,-2.319,-14.343
-0.034,0.198,1.014,25.940,-1.648,-14.282
-0.028,0.201,0.995,26.245,-2.014,-12.573
-0.048,0.204,0.991,24.841,-3.479,-9.216
-0.045,0.209,0.990,22.156,-5.493,-4.883
-0.034,0.218,0.992,17.517,-7.568,-0.793
-0.025,0.215,0.997,11.047,-10.315,2.808
-0.028,0.208,1.007,5.493,-13.428,5.371
-0.035,0.214,1.028,1.709,-16.052,6.165
-0.032,0.238,1.038,-0.488,-16.235,5.432
-0.043,0.256,1.044,-1.770,-12.817,4.089
-0.052,0.259,1.037,-3.479,-7.080,1.526
-0.058,0.262,1.030,-4.089,-1.587,-1.160
-0.068,0.280,1.022,-3.235,2.014,-1.953
-0.077,0.293,1.013,-2.502,4.700,-2.014
-0.082,0.296,1.007,-2.075,6.958,-1.709
-0.081,0.299,1.005,-1.282,7.874,-0.732
-0.062,0.307,0.990,0.305,7.568,1.648
-0.048,0.314,0.965,0.732,6.287,4.395
-0.048,0.300,0.957,-0.122,5.615,5.920
-0.037,0.298,0.962,-0.732,6.531,6.348
-0.016,0.310,0.966,0.000,8.789,6.226
0.002,0.314,0.965,0.488,11.169,5.920
0.026,0.315,0.957,1.221,12.329,5.188
0.045,0.314,0.955,1.709,12.634,4.395
0.051,0.311,0.946,2.014,12.695,3.113
0.050,0.307,0.948,2.197,13.123,2.258
0.053,0.300,0.953,2.991,15.137,1.038
0.053,0.289,0.939,3.906,17.517,0.183
0.050,0.273,0.928,5.066,18.250,0.061
0.048,0.270,0.918,5.432,16.785,0.305
0.044,0.266,0.912,5.005,14.343,1.282

-0.239,-0.930,1.785,-78.613,-51.208,28.381
-0.388,-1.162,1.681,-69.824,-60.364,43.335
-0.462,-1.364,1.515,-58.899,-64.331,56.396
-0.423,-1.510,1.306,-50.781,-63.049,65.002
-0.331,-1.604,1.136,-54.871,-57.190,70.618
-0.141,-1.675,1.004,-70.557,-49.438,73.364
0.087,-1.708,0.948,-93.933,-43.945,70.618
0.287,-1.719,0.942,-122.681,-42.542,59.937
0.524,-1.655,0.923,-149.475,-41.748,43.152
0.641,-1.448,0.955,-174.133,-42.786,18.494
0.767,-1.217,0.928,-186.951,-42.908,-9.827
0.869,-0.899,0.776,-186.768,-41.443,-33.691
0.776,-0.508,0.563,-177.917,-42.664,-52.490
0.740,-0.059,0.231,-158.569,-40.527,-62.927
0.518,0.516,-0.191,-139.893,-42.542,-63.110
0.229,1.277,-0.634,-122.620,-43.579,-48.889
0.035,1.973,-1.217,-118.042,-38.696,-26.428
-0.032,2.599,-1.417,-119.751,-47.607,-13.550
-0.097,3.043,-1.339,-131.775,-64.758,-18.005
-0.135,3.242,-0.944,-140.015,-63.843,-38.940
-0.066,3.276,-0.503,-128.601,-47.058,-54.565
-0.112,3.210,-0.130,-100.403,-38.208,-60.181
-0.172,2.929,0.038,-65.186,-38.147,-56.335
-0.139,2.543,0.042,-29.297,-40.649,-36.011
-0.053,2.235,0.018,-0.549,-44.312,-10.376
0.061,1.968,0.017,19.226,-49.011,12.024
0.158,1.714,0.010,31.006,-50.354,27.100
0.221,1.502,0.015,35.889,-44.800,33.875
0.262,1.346,0.026,37.964,-33.203,34.119
0.276,1.249,0.040,36.682,-17.761,29.968
0.240,1.172,0.070,31.494,-4.028,23.071
0.282,1.079,0.115,23.437,7.263,16.663
0.194,0.997,0.200,20.813,3.296,20.935
0.265,0.980,0.297,24.719,1.465,11.414
0.224,0.953,0.402,26.611,9.766,14.587
0.221,0.941,0.481,28.992,12.878,15.137
0.186,0.932,0.569,29.663,12.878,12.756
0.147,0.915,0.646,28.442,12.878,12.146
0.090,0.890,0.704,31.128,8.484,14.648
0.055,0.871,0.725,36.621,5.249,19.287
0.040,0.854,0.707,40.955,5.554,26.245
0.018,0.815,0.694,39.795,5.188,32.349
-0.006,0.757,0.708,36.255,3.601,33.386
-0.027,0.706,0.729,35.950,4.089,30.518
-0.052,0.677,0.733,39.246,7.935,26.367
-0.066,0.651,0.729,43.823,13.794,21.729
-0.074,0.620,0.743,48.889,19.836,17.273
-0.080,0.588,0.748,54.749,24.231,13.245
-0.086,0.569,0.748,62.134,26.001,9.216
-0.076,0.545,0.740,70.190,26.978,7.141
-0.062,0.516,0.744,77.332,26.428,6.836
-0.066,0.466,0.743,83.069,22.827,7.996
0.023,0.506,0.704,85.022,16.785,8.179
0.043,0.474,0.680,83.069,12.512,11.536
-0.002,0.426,0.695,74.524,12.634,15.686
0.022,0.386,0.696,63.721,15.198,14.709
0.042,0.378,0.722,56.946,18.188,15.503
0.048,0.357,0.716,51.208,21.179,18.616
0.052,0.361,0.755,40.955,23.987,19.897
0.047,0.358,0.786,31.189,26.978,18.799
0.044,0.352,0.804,22.644,29.785,18.250
0.050,0.352,0.854,16.785,31.860,17.578
0.048,0.340,0.867,12.878,30.884,16.663
0.038,0.345,0.890,11.719,27.710,14.832
0.043,0.362,0.915,12.024,23.987,12.512
0.038,0.382,0.939,12.451,22.400,10.864
0.053,0.399,0.957,9.766,21.545,13.428
0.059,0.412,0.956,11.536,15.808,15.198
0.044,0.426,0.939,16.296,8.240,13.733
0.053,0.437,0.932,21.790,5.066,13.855
0.056,0.427,0.905,27.039,3.235,14.160
0.027,0.401,0.885,31.250,1.770,11.597
0.008,0.368,0.873,36.316,2.686,8.179
0.016,0.348,0.858,42.480,4.822,7.019
0.025,0.332,0.838,45.593,5.920,7.446
0.030,0.307,0.839,42.297,6.470,8.667
0.032,0.297,0.859,35.400,5.920,11.047
0.024,0.295,0.889,28.015,4.822,14.038
0.006,0.280,0.923,22.522,4.944,16.785
0.009,0.263,0.944,19.470,6.531,18.921
0.021,0.262,0.962,17.334,7.080,20.752
0.044,0.275,0.971,14.709,5.737,21.790
0.056,0.279,0.983,12.268,3.601,20.386
0.042,0.271,1.000,9.460,2.075,17.334
0.030,0.263,1.009,7.324,2.197,15.015
0.032,0.270,1.006,7.385,4.211,13.306
0.033,0.276,1.000,8.057,7.507,11.047
0.035,0.286,0.990,8.850,10.498,8.118
0.026,0.290,0.994,9.399,12.329,5.737
0.017,0.281,1.000,10.864,14.526,4.150
0.022,0.279,0.999,12.573,17.090,3.784
0.030,0.276,0.996,13.611,17.151,4.761
0.034,0.266,0.991,13.367,13.855,6.592
0.042,0.263,0.991,12.268,9.521,8.606
0.058,0.264,0.991,10.925,5.859,10.437
0.073,0.258,0.993,9.521,2.197,11.292
0.080,0.253,1.001,8.911,-2.441,10.925
0.080,0.246,1.000,9.460,-6.348,9.766
0.079,0.241,0.987,10.864,-8.301,8.240
0.082,0.244,0.965,12.268,-7.812,5.737
0.079,0.246,0.952,13.489,-6.348,2.563
0.074,0.247,0.940,14.893,-4.639,-0.610
0.062,0.255,0.934,15.930,-2.380,-2.869
0.047,0.262,0.938,16.296,-0.183,-5.127
0.040,0.266,0.937,16.479,2.197,-6.958
0.030,0.271,0.938,16.113,3.784,-7.812
0.029,0.281,0.935,14.954,3.662,-6.958
0.024,0.272,0.924,11.719,1.587,-5.066
0.026,0.260,0.920,7.751,-1.892,-2.991
0.030,0.257,0.929,4.517,-5.493,-0.732
0.040,0.271,0.936,0.488,-8.301,0.610
0.038,0.276,0.961,-3.235,-9.888,0.916
0.037,0.288,0.993,-5.981,-9.521,0.610
0.026,0.294,1.009,-6.775,-8.667,0.122
0.005,0.286,1.021,-6.287,-7.141,-0.061
-0.010,0.279,1.030,-4.456,-5.127,-0.366
-0.013,0.277,1.036,-1.160,-4.089,-0.488
-0.026,0.272,1.031,1.160,-4.456,-0.305
-0.038,0.266,1.007,2.319,-4.944,-0.427

-0.115,-0.937,1.423,-32.837,-14.832,-26.489
-0.144,-0.830,1.259,-21.118,-9.094,-32.959
-0.143,-0.674,1.063,-10.803,-7.385,-34.790
-0.146,-0.498,0.860,-7.263,-11.047,-30.762
-0.140,-0.254,0.657,-12.634,-17.883,-23.193
-0.138,0.021,0.496,-19.714,-27.283,-13.977
-0.142,0.238,0.356,-29.175,-35.645,-8.362
-0.149,0.392,0.253,-40.894,-42.114,-6.836
-0.109,0.574,0.153,-49.194,-44.128,-7.812
-0.053,0.799,0.101,-53.345,-40.100,-9.888
-0.010,1.043,0.119,-56.396,-29.846,-15.076
-0.007,1.301,0.180,-54.260,-16.418,-24.475
-0.008,1.607,0.240,-41.748,-0.793,-36.316
-0.049,1.848,0.276,-24.780,18.494,-51.636
-0.080,1.955,0.312,-9.705,37.415,-68.726
-0.088,1.954,0.333,5.310,48.218,-77.454
-0.066,1.939,0.393,25.146,45.532,-74.402
0.000,1.874,0.401,39.001,46.509,-65.430
0.098,1.770,0.433,36.072,47.668,-44.495
0.091,1.642,0.475,34.912,25.879,-27.893
0.139,1.493,0.483,27.954,9.399,-16.113
0.159,1.338,0.486,19.409,-0.427,-3.662
0.191,1.214,0.490,5.554,-6.104,12.939
0.199,1.110,0.526,-7.751,-13.916,27.344
0.224,1.004,0.566,-16.785,-20.386,37.476
0.242,0.926,0.611,-21.545,-24.231,44.006
0.258,0.861,0.634,-23.376,-26.489,46.631
0.243,0.796,0.654,-23.987,-26.245,44.983
0.216,0.737,0.692,-23.987,-22.095,39.307
0.187,0.685,0.729,-23.193,-14.954,31.494
0.154,0.646,0.774,-22.949,-5.859,24.658
0.102,0.593,0.813,-22.034,2.991,20.020
0.055,0.540,0.838,-20.691,10.559,18.616
0.002,0.498,0.860,-17.334,13.794,19.470
-0.032,0.475,0.875,-11.292,12.146,20.752
-0.055,0.461,0.889,-4.761,7.446,21.606
-0.069,0.438,0.899,1.404,3.418,22.156
-0.080,0.408,0.902,7.080,2.075,23.315
-0.065,0.384,0.900,9.644,4.578,24.902
-0.035,0.364,0.877,8.667,10.132,27.100
-0.006,0.348,0.873,4.395,15.869,28.870
0.015,0.342,0.882,-1.892,20.081,28.931
0.034,0.336,0.906,-7.996,22.705,28.687
0.040,0.320,0.924,-13.184,23.193,29.053
0.040,0.295,0.951,-18.188,21.973,29.236
0.046,0.277,0.981,-22.949,20.874,29.236
0.036,0.254,0.985,-25.330,18.311,29.236
0.039,0.266,1.008,-25.391,15.198,28.381
0.035,0.283,1.023,-24.475,13.000,26.489
0.051,0.320,1.028,-24.719,13.184,22.522
0.060,0.350,1.025,-23.865,15.259,17.944
0.074,0.384,1.013,-21.667,17.761,13.062
0.073,0.415,1.001,-19.348,20.630,8.118
0.056,0.422,0.989,-16.296,22.522,3.296
0.042,0.425,0.971,-11.902,23.437,-0.244
0.015,0.425,0.954,-7.812,22.156,-1.343
-0.022,0.420,0.957,-4.395,18.127,-1.038
-0.045,0.409,0.949,-0.366,11.963,-0.183
-0.069,0.391,0.954,4.578,5.371,1.160
-0.062,0.377,0.941,9.705,-0.610,3.235
-0.052,0.365,0.927,14.160,-5.066,5.432
-0.041,0.356,0.922,17.761,-9.155,6.897
-0.031,0.352,0.913,20.325,-11.597,6.958
-0.034,0.341,0.910,21.484,-11.719,6.348
-0.039,0.324,0.907,22.278,-10.132,5.615
-0.037,0.315,0.896,23.743,-7.812,5.432
-0.038,0.305,0.889,25.024,-5.310,5.615
-0.033,0.303,0.886,25.146,-3.662,5.554
-0.016,0.300,0.882,25.024,-2.686,6.042
-0.011,0.306,0.891,23.499,-2.747,5.981
-0.016,0.314,0.906,20.813,-3.357,4.639
-0.010,0.317,0.912,19.836,-3.601,3.113
-0.008,0.320,0.918,21.606,-2.869,1.953
-0.002,0.327,0.922,24.780,-2.197,1.404
0.005,0.335,0.921,26.917,-1.831,0.854
-0.012,0.326,0.916,26.062,-1.404,-0.122
-0.041,0.299,0.912,23.865,-0.366,-0.793
-0.048,0.288,0.899,22.034,0.061,0.122
-0.051,0.278,0.894,20.142,-1.099,3.540
-0.038,0.277,0.892,16.541,-3.418,6.775
-0.019,0.284,0.904,12.268,-6.409,9.827
-0.011,0.295,0.926,7.446,-8.972,11.475
0.002,0.306,0.955,3.052,-9.460,11.414
0.013,0.319,0.988,-0.793,-7.751,10.071
0.017,0.335,1.001,-3.723,-5.005,7.996
0.020,0.351,1.008,-5.859,-2.625,5.371
0.014,0.359,1.011,-6.897,-1.587,2.197
0.008,0.370,1.011,-6.348,-1.038,-0.488
0.006,0.379,1.001,-5.066,-0.549,-2.625
-0.003,0.390,0.994,-1.831,-0.610,-3.906
-0.010,0.408,0.995,2.380,-0.488,-4.822
-0.013,0.410,0.989,5.981,-0.305,-5.310
-0.021,0.407,0.988,9.460,-0.854,-4.700
-0.037,0.402,0.994,12.573,-2.197,-3.723
-0.049,0.386,0.987,15.869,-3.662,-2.625
-0.050,0.380,0.965,18.616,-5.310,-1.221
-0.047,0.359,0.953,20.386,-6.958,0.122
-0.038,0.366,0.914,20.813,-8.118,1.770
-0.041,0.341,0.916,20.447,-9.033,2.441
-0.041,0.337,0.889,18.372,-8.301,3.418
-0.046,0.325,0.878,15.198,-6.897,5.859
-0.052,0.316,0.876,11.414,-6.714,7.690
-0.059,0.305,0.883,7.019,-7.507,9.033
-0.062,0.295,0.893,3.479,-8.423,10.681
-0.063,0.288,0.898,0.977,-8.728,12.451
-0.070,0.281,0.901,-1.038,-8.179,13.000
-0.080,0.285,0.912,-2.380,-6.470,12.146
-0.074,0.287,0.911,-2.808,-4.272,11.108
-0.085,0.285,0.911,-2.991,-2.075,8.850
-0.098,0.293,0.918,-1.892,-0.732,6.165
-0.085,0.314,0.907,0.732,0.793,4.395
-0.087,0.326,0.907,2.686,2.686,2.991
-0.102,0.331,0.926,3.906,4.089,1.099
-0.112,0.345,0.942,5.798,5.737,0.427
-0.112,0.353,0.953,7.874,7.080,1.648
-0.102,0.350,0.957,8.972,6.287,3.357
-0.079,0.353,0.942,9.033,3.906,5.310
-0.059,0.354,0.928,7.202,0.671,6.714
-0.041,0.345,0.923,3.906,-1.221,7.141

0.433,-1.036,1.599,-117.615,-2.747,20.691
0.407,-1.205,1.710,-133.057,-1.770,15.747
0.403,-1.313,1.753,-140.320,-1.404,11.414
0.447,-1.404,1.876,-140.808,-4.578,9.827
0.484,-1.448,1.867,-139.099,-10.864,9.949
0.484,-1.404,1.845,-131.775,-22.095,8.118
0.480,-1.295,1.818,-121.155,-32.776,1.709
0.460,-1.186,1.689,-103.577,-39.001,-10.376
0.445,-1.141,1.482,-82.520,-42.419,-27.283
0.421,-1.115,1.250,-66.223,-39.307,-42.847
0.436,-1.077,1.003,-56.396,-28.442,-54.749
0.496,-0.874,0.690,-48.523,-15.991,-64.209
0.526,-0.594,0.362,-41.504,-10.559,-73.853
0.558,-0.242,0.069,-38.574,-12.817,-81.848
0.577,0.163,-0.232,-37.048,-17.456,-86.548
0.523,0.592,-0.456,-41.321,-20.935,-90.515
0.483,1.053,-0.667,-46.143,-19.714,-91.187
0.398,1.621,-0.765,-55.298,-20.325,-85.815
0.201,2.203,-0.735,-67.383,-21.118,-74.402
0.110,2.657,-0.573,-75.317,-19.287,-59.631
0.044,2.984,-0.297,-79.407,-25.757,-42.786
-0.012,3.176,0.102,-78.308,-45.959,-28.015
-0.144,3.225,0.492,-65.125,-73.303,-31.982
-0.286,3.071,0.843,-60.242,-91.248,-37.415
-0.621,2.721,0.964,-58.960,-99.365,-45.471
-0.920,2.337,0.885,-49.377,-97.107,-48.401
-1.041,1.972,0.594,-30.518,-86.426,-29.480
-1.016,1.677,0.311,-8.545,-75.623,6.653
-0.864,1.503,0.156,8.545,-65.369,42.847
-0.595,1.436,0.133,17.395,-51.880,68.298
-0.212,1.350,0.239,17.029,-25.940,79.895
0.133,1.217,0.384,8.362,6.348,78.125
0.388,1.069,0.532,2.625,34.851,64.087
0.559,0.926,0.626,3.357,55.237,44.983
0.656,0.770,0.692,7.629,66.895,28.870
0.691,0.644,0.709,15.564,69.519,16.296
0.703,0.567,0.711,25.269,66.101,6.897
0.674,0.510,0.717,32.715,59.937,0.244
0.632,0.458,0.740,36.987,54.199,-4.272
0.594,0.399,0.779,38.269,48.828,-9.338
0.560,0.342,0.816,36.621,43.762,-13.367
0.514,0.309,0.847,32.837,39.429,-14.832
0.448,0.299,0.883,27.649,35.522,-15.137
0.378,0.297,0.886,22.217,33.203,-14.587
0.318,0.323,0.905,18.250,32.349,-10.681
0.290,0.341,0.910,15.747,33.508,-4.211
0.273,0.347,0.887,12.573,35.339,2.319
0.257,0.344,0.867,7.629,35.828,9.216
0.254,0.349,0.831,5.615,30.518,16.235
0.236,0.360,0.794,6.653,21.729,20.569
0.234,0.353,0.759,7.324,16.541,23.437
0.223,0.342,0.736,7.751,12.512,26.367
0.215,0.330,0.715,9.705,6.775,28.076
0.224,0.328,0.705,10.498,2.563,27.954
0.234,0.333,0.704,9.705,1.526,25.391
0.234,0.345,0.702,9.277,2.380,19.653
0.232,0.357,0.706,9.521,5.310,10.986
0.223,0.369,0.719,10.803,11.292,0.732
0.209,0.384,0.736,13.306,18.982,-10.498
0.197,0.410,0.745,18.066,27.161,-20.813
0.184,0.440,0.781,24.292,34.302,-28.137
0.174,0.460,0.791,28.870,40.039,-32.471
0.161,0.467,0.804,32.166,40.894,-33.569
0.137,0.460,0.825,34.424,34.851,-30.945
0.137,0.433,0.843,35.461,26.672,-24.475
0.146,0.417,0.851,34.790,19.470,-14.587
0.158,0.403,0.879,33.508,12.085,-3.845
0.169,0.385,0.879,30.151,4.761,5.066
0.168,0.383,0.886,26.123,-1.587,11.841
0.189,0.381,0.908,23.926,-7.202,16.418
0.184,0.369,0.928,20.996,-10.620,18.921
0.189,0.361,0.924,17.029,-9.094,20.142
0.189,0.346,0.922,13.062,-6.042,21.362
0.188,0.341,0.902,8.606,-3.540,20.691
0.171,0.340,0.927,6.653,-2.502,19.165
0.156,0.333,0.921,6.714,-0.366,18.005
0.155,0.335,0.918,9.583,2.930,16.846
0.154,0.332,0.901,14.343,5.127,15.930
0.160,0.331,0.894,19.165,5.127,15.015
0.172,0.324,0.871,23.499,3.601,13.672
0.161,0.311,0.866,28.076,0.183,12.390
0.159,0.297,0.849,32.532,-3.113,12.756
0.149,0.282,0.837,36.438,-4.883,13.916
0.145,0.263,0.818,39.795,-5.432,15.503
0.138,0.251,0.840,41.443,-5.798,18.005
0.172,0.249,0.829,37.903,-3.479,20.874
0.195,0.233,0.827,32.837,-2.991,22.644
0.195,0.217,0.845,25.818,-4.944,22.034
0.193,0.224,0.874,19.714,-7.080,20.142
0.190,0.240,0.896,16.235,-6.287,17.700
0.203,0.243,0.959,15.564,-2.625,13.611
0.203,0.259,0.963,14.587,4.639,8.179
0.202,0.253,0.985,16.785,12.817,2.991
0.196,0.248,1.010,21.362,18.982,-0.732
0.202,0.265,0.967,26.306,22.583,-2.563
0.173,0.238,0.990,33.447,21.423,-2.625
0.163,0.223,0.971,36.316,20.691,-1.404
0.170,0.223,0.953,40.222,17.456,1.831
0.171,0.209,0.945,44.678,12.756,5.920
0.175,0.178,0.931,48.279,8.362,9.338
0.180,0.180,0.933,49.927,3.540,12.939
0.208,0.178,0.964,50.964,4.333,15.381
0.206,0.125,0.963,52.307,3.723,16.907
0.221,0.099,0.962,50.903,3.845,15.747
0.228,0.099,0.957,50.293,2.136,15.259
0.222,0.090,0.951,48.401,1.953,13.184
0.222,0.076,0.932,46.753,3.906,10.742
0.226,0.076,0.925,45.288,7.324,9.277
0.231,0.075,0.915,43.152,11.353,7.446
0.237,0.071,0.907,39.978,14.587,5.615
0.219,0.054,0.914,36.133,16.296,4.272
0.221,0.036,0.908,33.447,16.785,3.601
0.232,0.030,0.901,31.250,15.503,4.028
0.240,0.023,0.903,29.480,12.695,4.822
0.241,0.012,0.908,27.466,9.033,5.249
0.245,0.005,0.920,25.085,5.798,6.348
0.250,-0.001,0.941,22.095,4.028,7.874
0.255,-0.007,0.962,19.592,3.418,9.460
0.263,-0.015,0.984,17.395,3.723,11.353

0.359,-0.956,1.373,-100.769,-17.822,13.489
0.340,-1.009,1.415,-106.323,-9.949,5.127
0.292,-1.053,1.425,-109.314,-1.831,-3.540
0.266,-1.074,1.392,-106.201,2.380,-11.536
0.250,-1.084,1.360,-103.027,1.770,-19.470
0.268,-1.096,1.339,-104.370,-2.258,-26.245
0.302,-1.104,1.265,-106.140,-6.653,-29.053
0.322,-1.007,1.207,-107.117,-12.756,-32.166
0.392,-0.802,1.105,-100.525,-20.325,-35.461
0.425,-0.543,0.941,-86.792,-25.940,-39.429
0.410,-0.245,0.745,-72.449,-26.245,-47.974
0.365,0.056,0.467,-61.340,-20.874,-57.861
0.277,0.441,0.200,-55.115,-13.977,-65.369
0.210,0.834,0.037,-52.612,-7.202,-68.359
0.151,1.183,-0.080,-56.396,-1.343,-66.711
0.019,1.522,-0.124,-61.401,0.793,-61.707
0.057,1.783,-0.196,-56.274,-0.549,-46.082
0.145,2.006,-0.250,-50.781,-14.099,-19.470
0.153,2.176,-0.217,-56.091,-45.471,2.136
0.107,2.212,-0.088,-77.026,-79.163,9.460
0.067,2.155,0.117,-90.637,-101.440,9.644
0.053,2.113,0.314,-94.360,-105.103,4.822
0.001,2.008,0.435,-90.271,-96.008,-3.296
-0.108,1.864,0.460,-81.482,-80.078,-17.761
-0.204,1.710,0.445,-64.514,-60.974,-31.799
-0.246,1.589,0.443,-43.030,-42.847,-40.466
-0.238,1.492,0.490,-23.682,-25.818,-45.532
-0.195,1.365,0.544,-6.897,-7.507,-48.279
-0.084,1.244,0.598,10.803,15.198,-44.373
0.076,1.133,0.635,29.175,39.490,-33.875
0.219,1.047,0.659,44.617,56.213,-23.376
0.332,0.998,0.680,54.993,66.650,-16.602
0.427,0.957,0.691,59.204,75.134,-12.817
0.481,0.915,0.684,58.777,81.177,-11.597
0.490,0.892,0.690,58.411,83.740,-13.550
0.481,0.845,0.723,59.570,85.388,-17.212
0.477,0.778,0.751,63.354,86.365,-19.287
0.479,0.684,0.780,69.275,86.548,-18.616
0.502,0.574,0.784,75.500,84.167,-14.282
0.526,0.495,0.767,82.397,76.294,-5.310
0.559,0.431,0.742,87.708,65.125,5.432
0.579,0.370,0.721,88.806,52.917,15.564
0.585,0.295,0.705,85.938,40.039,24.536
0.579,0.240,0.682,80.994,27.954,32.837
0.575,0.197,0.658,74.646,19.470,39.917
0.569,0.161,0.649,66.528,15.198,43.701
0.547,0.133,0.630,57.495,13.977,43.823
0.529,0.127,0.621,48.767,15.076,40.894
0.491,0.117,0.615,41.321,18.433,36.560
0.463,0.107,0.625,37.048,23.926,31.921
0.436,0.102,0.638,34.973,29.968,28.259
0.442,0.103,0.654,34.790,35.400,26.062
0.460,0.104,0.683,36.438,38.330,25.024
0.468,0.102,0.711,38.452,37.781,24.170
0.481,0.093,0.738,39.917,34.363,22.827
0.490,0.087,0.757,40.100,30.945,20.691
0.503,0.083,0.755,43.152,28.137,18.494
0.505,0.078,0.788,46.875,25.146,16.602
0.510,0.080,0.790,49.133,23.132,14.832
0.544,0.093,0.817,50.232,21.118,13.794
0.543,0.100,0.816,47.852,20.569,11.780
0.531,0.105,0.832,43.457,20.935,8.606
0.515,0.111,0.845,40.710,20.935,5.493
0.496,0.103,0.930,40.344,19.714,2.441
0.488,0.079,0.949,37.476,19.714,0.916
0.481,0.073,0.938,34.302,18.127,2.563
0.468,0.067,0.939,34.119,13.550,5.493
0.467,0.072,0.926,34.485,6.958,8.240
0.478,0.078,0.915,35.339,0.732,11.353
0.478,0.085,0.924,36.194,-5.249,14.221
0.474,0.087,0.916,36.194,-10.742,16.296
0.452,0.064,0.907,36.621,-13.794,18.005
0.445,0.057,0.884,37.598,-13.916,19.226
0.437,0.054,0.859,38.208,-12.451,19.470
0.415,0.035,0.845,37.964,-10.193,18.616
0.394,0.028,0.840,37.170,-7.935,17.273
0.393,0.021,0.840,36.743,-5.859,16.541
0.395,0.021,0.843,35.156,-3.540,14.954
0.365,0.009,0.866,34.668,-2.319,11.780
0.376,0.010,0.865,37.231,-1.282,10.132
0.386,0.009,0.853,39.673,-0.671,9.827
0.380,0.004,0.849,40.833,-2.197,8.240
0.365,0.002,0.851,41.260,-4.150,6.409
0.361,-0.014,0.838,41.138,-4.578,6.714
0.358,-0.030,0.822,39.795,-3.174,7.935
0.366,-0.042,0.814,37.109,-1.587,9.521
0.374,-0.041,0.818,33.081,-0.732,10.376
0.375,-0.046,0.819,26.733,-0.854,10.315
0.379,-0.050,0.838,20.691,-1.587,9.827
0.382,-0.045,0.848,15.076,-2.380,9.216
0.386,-0.030,0.861,10.010,-2.563,8.484
0.376,-0.031,0.872,5.127,-2.563,7.446
0.368,-0.037,0.869,0.122,-2.319,5.920
0.348,-0.042,0.870,-3.540,-2.747,5.615
0.330,-0.034,0.863,-7.019,-2.502,6.409
0.322,-0.033,0.851,-9.644,-1.038,8.240
0.317,-0.037,0.848,-12.634,1.160,10.254
0.325,-0.038,0.829,-16.541,3.418,12.634
0.314,-0.045,0.827,-18.738,4.333,14.343
0.341,-0.015,0.831,-24.170,5.066,18.311
0.342,0.020,0.851,-27.466,-0.793,21.912
0.336,0.013,0.882,-26.306,-6.836,20.508
0.347,0.004,0.893,-24.780,-6.714,18.372
0.342,0.007,0.896,-19.409,-7.935,18.616
0.328,0.012,0.907,-13.550,-12.817,16.846
0.322,0.001,0.902,-7.629,-16.052,14.221
0.317,-0.007,0.900,-1.343,-16.418,12.390
0.328,-0.004,0.894,3.296,-14.648,10.437
0.340,-0.017,0.890,4.944,-11.536,8.484
0.359,-0.029,0.891,4.883,-8.545,7.446
0.371,-0.022,0.896,5.676,-6.958,6.775
0.386,-0.013,0.908,6.897,-4.761,5.005
0.392,-0.020,0.909,7.019,-2.686,2.258
0.384,-0.037,0.913,6.287,-3.418,0.000
0.375,-0.036,0.908,5.066,-6.836,-0.854
0.360,-0.028,0.917,2.258,-10.986,-0.671
0.329,-0.046,0.921,-1.160,-14.893,0.732
0.310,-0.066,0.921,-4.333,-18.127,3.418
0.312,-0.057,0.908,-8.179,-20.325,6.836

-0.297,-0.678,1.454,-119.141,-194.336,84.351
-0.345,-0.481,1.285,-90.698,-196.594,83.679
-0.389,-0.248,1.067,-61.951,-202.698,84.595
-0.375,-0.070,0.836,-38.391,-215.454,85.754
-0.484,0.094,0.410,-28.137,-237.793,84.839
-0.696,0.355,-0.033,-25.574,-260.376,80.872
-0.891,0.674,-0.475,-29.663,-264.221,80.566
-0.994,0.947,-0.806,-47.058,-251.282,82.153
-1.029,1.201,-0.843,-72.571,-231.812,75.073
-1.014,1.488,-0.652,-95.581,-207.336,56.763
-0.902,1.702,-0.425,-101.318,-175.598,32.898
-0.820,1.837,-0.272,-88.989,-137.329,3.540
-0.853,1.921,-0.196,-63.782,-98.328,-32.349
-0.843,1.959,-0.164,-31.311,-58.472,-67.505
-0.823,1.933,-0.152,-2.930,-21.729,-91.187
-0.793,1.846,-0.145,20.935,4.089,-98.145
-0.760,1.757,-0.119,39.307,15.015,-87.219
-0.699,1.687,-0.060,48.096,10.864,-62.988
-0.600,1.612,0.042,49.194,0.305,-36.133
-0.521,1.527,0.163,47.119,-11.047,-13.855
-0.463,1.436,0.292,45.105,-21.362,0.977
-0.426,1.283,0.345,41.016,-23.560,10.193
-0.354,1.207,0.471,30.518,-22.949,18.555
-0.382,1.079,0.516,28.564,-21.729,13.245
-0.359,0.956,0.540,17.029,-11.169,10.803
-0.413,0.870,0.545,8.911,-10.986,15.076
-0.445,0.787,0.536,3.418,-14.465,13.367
-0.438,0.718,0.534,-1.709,-11.902,12.329
-0.423,0.665,0.556,-8.362,-6.409,15.137
-0.425,0.618,0.596,-15.076,-2.380,17.029
-0.429,0.578,0.633,-19.226,1.770,15.503
-0.439,0.542,0.662,-20.081,8.484,11.230
-0.456,0.505,0.686,-18.921,17.334,5.859
-0.462,0.475,0.705,-15.625,26.306,-0.183
-0.473,0.454,0.722,-10.620,33.691,-6.226
-0.500,0.433,0.724,-4.700,39.185,-12.024
-0.520,0.416,0.707,1.160,42.480,-16.113
-0.523,0.409,0.679,5.920,42.908,-17.456
-0.513,0.408,0.653,9.216,41.626,-15.808
-0.509,0.411,0.619,10.010,39.856,-14.160
-0.505,0.422,0.588,8.972,38.757,-13.184
-0.500,0.440,0.561,6.592,38.696,-12.512
-0.486,0.455,0.541,2.991,39.490,-11.780
-0.484,0.460,0.526,-1.404,39.978,-12.329
-0.488,0.475,0.524,-5.493,38.818,-13.428
-0.483,0.504,0.534,-7.507,35.889,-13.550
-0.487,0.522,0.549,-7.812,31.921,-13.306
-0.500,0.540,0.572,-6.897,27.954,-13.977
-0.518,0.549,0.592,-4.578,26.184,-15.442
-0.519,0.567,0.602,-1.404,26.978,-16.174
-0.525,0.563,0.607,3.845,28.137,-19.287
-0.526,0.570,0.611,4.395,28.809,-20.935
-0.538,0.581,0.630,5.554,29.053,-19.043
-0.540,0.594,0.646,7.385,29.236,-17.517
-0.531,0.594,0.661,9.583,29.541,-15.564
-0.522,0.583,0.669,12.146,29.785,-12.451
-0.505,0.576,0.672,13.916,29.175,-9.888
-0.497,0.572,0.674,14.404,27.527,-9.155
-0.495,0.561,0.667,13.672,25.818,-9.827
-0.501,0.530,0.677,12.024,24.719,-10.559
-0.504,0.520,0.684,10.376,25.146,-11.292
-0.511,0.524,0.691,10.132,26.306,-11.963
-0.512,0.528,0.687,10.803,27.527,-11.780
-0.505,0.533,0.679,10.742,27.649,-9.705
-0.514,0.533,0.675,10.315,26.978,-7.141
-0.530,0.538,0.686,11.658,25.452,-6.409
-0.546,0.535,0.689,13.977,24.231,-6.470
-0.542,0.509,0.682,16.174,23.865,-4.517
-0.524,0.479,0.673,17.822,23.499,-2.075
-0.495,0.470,0.663,18.982,22.217,-0.671
-0.469,0.462,0.660,19.348,21.606,0.366
-0.463,0.451,0.658,18.677,22.034,-0.061
-0.455,0.448,0.662,16.785,22.705,-1.709
-0.449,0.447,0.668,15.564,24.597,-3.601
-0.442,0.454,0.671,14.343,27.954,-4.822
-0.444,0.458,0.680,12.329,31.921,-5.432
-0.449,0.459,0.703,10.193,35.217,-4.944
-0.427,0.462,0.726,8.423,36.377,-3.418
-0.420,0.467,0.754,6.775,35.156,-2.258
-0.423,0.471,0.777,6.226,32.959,-2.136
-0.436,0.475,0.804,6.531,30.945,-2.258
-0.428,0.476,0.814,8.911,30.273,-2.014
-0.417,0.479,0.819,12.268,30.823,-1.953
-0.411,0.487,0.814,14.526,31.799,-3.174
-0.413,0.481,0.805,16.418,32.959,-4.883
-0.409,0.484,0.809,18.005,34.546,-6.348
-0.404,0.480,0.810,20.203,36.377,-7.263
-0.382,0.490,0.806,21.667,38.391,-7.324
-0.387,0.491,0.818,21.729,38.391,-7.324
-0.378,0.479,0.829,20.691,37.170,-6.775
-0.360,0.472,0.839,20.203,36.011,-4.456
-0.358,0.465,0.852,20.325,34.424,-1.709
-0.348,0.442,0.851,19.836,33.142,0.793
-0.321,0.426,0.839,17.395,32.837,3.235
-0.300,0.437,0.829,14.465,32.349,4.822
-0.285,0.446,0.831,11.658,31.616,4.395
-0.280,0.444,0.841,8.850,32.043,2.319
-0.269,0.444,0.852,7.690,33.447,0.183
-0.264,0.456,0.868,8.057,35.400,-1.343
-0.259,0.449,0.872,9.399,38.025,-2.686
-0.260,0.438,0.871,10.986,40.527,-4.089
-0.264,0.434,0.876,12.634,41.687,-5.676
-0.260,0.426,0.875,13.916,40.955,-6.165
-0.260,0.418,0.873,14.893,39.124,-5.676
-0.258,0.419,0.874,16.296,36.865,-5.310
-0.254,0.433,0.875,17.944,35.034,-5.432
-0.253,0.438,0.880,19.714,34.241,-5.310
-0.232,0.443,0.879,21.606,34.668,-5.554
-0.213,0.445,0.881,22.095,35.217,-6.165
-0.217,0.436,0.885,21.851,34.973,-8.179
-0.214,0.418,0.880,20.935,34.363,-10.193
-0.202,0.405,0.874,20.325,34.363,-10.559
-0.188,0.402,0.866,19.958,34.363,-9.888
-0.175,0.391,0.858,18.738,32.959,-9.216
-0.163,0.377,0.864,16.479,30.396,-8.850
-0.134,0.383,0.879,14.404,27.771,-8.301
-0.128,0.382,0.893,13.733,25.879,-8.911
-0.127,0.385,0.898,14.954,24.719,-10.254
-0.123,0.381,0.914,17.517,24.231,-12.207

-0.170,-0.993,1.500,-52.979,3.235,13.855
-0.125,-1.083,1.477,-51.575,-4.944,12.024
-0.053,-1.086,1.397,-41.931,-8.362,9.399
-0.001,-1.030,1.249,-26.611,-5.615,6.287
0.036,-0.938,1.031,-11.292,0.549,0.732
0.100,-0.835,0.804,-5.676,8.118,-7.751
0.142,-0.724,0.602,-12.085,16.846,-17.151
0.180,-0.549,0.399,-25.452,26.794,-23.071
0.269,-0.352,0.315,-40.955,31.067,-26.306
0.354,-0.136,0.289,-53.162,25.757,-32.593
0.366,0.185,0.251,-55.420,13.916,-41.809
0.353,0.539,0.220,-53.894,1.770,-53.040
0.345,0.796,0.250,-53.833,-6.836,-65.552
0.366,0.987,0.251,-52.063,-7.751,-76.904
0.375,1.235,0.229,-46.875,-2.136,-83.923
0.387,1.494,0.238,-37.415,2.625,-88.867
0.402,1.664,0.221,-32.410,5.554,-88.867
0.376,1.781,0.253,-34.668,3.601,-82.947
0.355,1.862,0.286,-34.363,-3.540,-78.003
0.293,1.982,0.351,-35.095,-12.451,-73.181
0.168,1.979,0.383,-31.433,-21.790,-71.960
0.131,1.945,0.468,-31.372,-19.653,-72.937
0.056,1.879,0.531,-25.818,-22.522,-60.120
-0.019,1.824,0.584,-14.221,-33.081,-41.260
-0.020,1.729,0.616,-1.221,-42.114,-23.071
0.020,1.607,0.621,11.292,-49.927,-5.798
0.046,1.490,0.617,19.104,-57.312,9.155
0.093,1.372,0.622,21.667,-61.707,20.081
0.165,1.248,0.597,20.752,-60.608,28.198
0.225,1.147,0.585,17.212,-54.688,33.752
0.272,1.062,0.575,13.428,-44.434,35.889
0.308,0.983,0.576,10.620,-29.846,35.583
0.330,0.911,0.585,8.118,-12.329,33.386
0.342,0.826,0.606,5.188,4.395,29.053
0.340,0.749,0.642,-0.305,15.747,25.391
0.308,0.658,0.705,-3.296,18.433,22.278
0.291,0.604,0.745,-5.798,19.836,17.700
0.289,0.573,0.798,-5.005,22.339,14.648
0.276,0.543,0.831,-3.052,22.766,10.803
0.250,0.518,0.870,-1.465,22.522,5.493
0.218,0.494,0.902,1.770,23.437,0.793
0.189,0.478,0.920,7.141,24.902,-2.441
0.158,0.456,0.930,14.099,26.428,-4.700
0.134,0.419,0.920,21.301,27.954,-5.188
0.095,0.369,0.901,25.452,26.978,-3.296
0.066,0.322,0.880,27.100,25.024,-1.038
0.055,0.306,0.838,26.123,23.315,3.235
0.048,0.301,0.800,22.583,21.423,8.728
0.055,0.292,0.761,16.785,19.287,14.648
0.054,0.278,0.745,8.484,16.846,21.301
0.056,0.265,0.740,-1.587,13.611,27.588
0.077,0.261,0.744,-11.230,7.507,34.241
0.080,0.264,0.768,-18.250,-3.113,39.368
0.076,0.269,0.799,-20.752,-13.794,42.114
0.079,0.271,0.832,-19.287,-21.118,41.992
0.071,0.287,0.849,-14.099,-24.231,39.368
0.051,0.291,0.881,-5.798,-23.193,34.180
0.057,0.289,0.877,3.235,-17.883,27.405
0.050,0.287,0.868,11.536,-10.559,19.958
0.051,0.288,0.864,19.531,-4.333,13.916
0.061,0.299,0.866,25.940,-0.732,10.193
0.054,0.319,0.878,29.419,0.977,7.507
0.038,0.327,0.900,29.419,1.892,5.249
0.032,0.321,0.903,25.391,3.601,4.028
0.023,0.290,0.922,20.752,4.883,4.333
0.004,0.280,0.930,17.273,4.883,6.042
-0.006,0.271,0.953,15.198,3.113,8.362
0.000,0.283,0.950,14.465,0.366,11.353
0.011,0.282,0.988,15.381,-3.235,14.709
0.010,0.283,0.987,14.648,-7.385,17.151
0.007,0.292,0.985,14.343,-11.108,18.860
0.000,0.287,0.977,14.282,-12.939,20.386
-0.007,0.276,0.974,15.015,-12.695,20.874
-0.012,0.273,0.976,16.968,-11.230,20.508
-0.022,0.264,0.984,20.630,-9.583,20.081
-0.017,0.239,0.966,21.118,-5.371,18.616
-0.016,0.232,0.941,20.325,-0.488,16.785
-0.026,0.234,0.927,20.142,2.197,15.198
-0.028,0.226,0.919,19.348,3.723,13.855
-0.039,0.215,0.920,18.799,5.005,13.794
-0.037,0.220,0.934,18.860,5.981,15.381
-0.029,0.205,0.937,19.043,6.104,17.090
-0.016,0.190,0.938,19.043,4.395,18.311
-0.006,0.180,0.941,18.494,1.343,19.165
0.010,0.175,0.950,17.517,-1.404,19.348
0.028,0.176,0.948,16.785,-3.174,18.494
0.032,0.190,0.951,16.235,-4.150,16.479
0.025,0.207,0.953,16.174,-3.174,13.123
0.005,0.204,0.940,16.724,-0.549,9.888
-0.014,0.218,0.941,15.198,2.869,7.812
0.005,0.226,0.959,16.113,6.531,7.751
-0.005,0.222,0.956,18.921,6.897,7.996
0.003,0.234,0.977,20.569,8.179,5.676
0.006,0.230,0.979,21.423,7.446,4.517
0.014,0.240,0.989,21.790,6.042,4.150
0.019,0.240,1.002,20.020,4.211,3.662
0.011,0.223,1.017,17.700,2.747,4.578
0.001,0.219,1.021,15.442,1.831,6.714
0.006,0.214,1.029,14.465,1.892,9.277
0.007,0.215,1.015,13.306,1.709,12.024
0.015,0.221,1.001,12.390,0.854,13.855
0.023,0.222,0.983,11.292,-0.610,14.709
0.021,0.219,0.968,10.010,-2.014,13.916
0.017,0.225,0.963,8.484,-2.380,11.902
0.008,0.228,0.959,6.714,-1.160,9.277
0.007,0.218,0.949,5.310,0.854,7.751
-0.007,0.210,0.944,3.906,2.869,6.226
-0.018,0.210,0.947,0.366,5.371,4.456
-0.003,0.203,0.932,-4.272,6.775,4.395
0.005,0.183,0.960,-11.658,7.080,4.883
-0.002,0.193,0.910,-21.118,7.629,5.981
0.018,0.186,0.915,-25.818,5.249,8.789
0.022,0.207,0.900,-31.067,1.465,10.986
0.035,0.211,0.932,-34.363,-1.282,12.024
0.041,0.208,0.929,-34.485,-2.075,11.780
0.035,0.196,0.944,-32.043,-0.793,10.803
0.036,0.206,0.948,-28.809,1.465,10.193
0.041,0.216,0.956,-23.437,3.418,8.789
0.039,0.235,0.967,-16.724,5.371,7.202

-0.072,-1.116,1.571,-94.299,-36.804,21.606
-0.066,-1.153,1.555,-95.276,-38.635,21.362
-0.092,-1.092,1.491,-85.205,-37.170,17.822
-0.095,-1.026,1.359,-70.740,-33.325,7.141
-0.044,-0.956,1.170,-57.190,-26.978,-5.493
-0.037,-0.886,0.946,-48.645,-21.484,-11.719
-0.066,-0.724,0.678,-49.622,-21.667,-13.794
-0.000,-0.497,0.448,-49.866,-29.480,-19.348
0.015,-0.262,0.250,-50.354,-42.664,-23.560
0.067,0.010,0.069,-53.955,-52.917,-25.574
0.186,0.364,-0.075,-54.993,-56.458,-27.771
0.316,0.791,-0.192,-54.199,-54.321,-32.837
0.369,1.247,-0.264,-55.054,-43.640,-46.448
0.343,1.724,-0.259,-59.998,-24.658,-67.139
0.287,2.160,-0.209,-61.157,4.395,-90.210
0.216,2.466,-0.104,-57.861,42.114,-112.061
0.209,2.605,0.034,-52.856,74.890,-126.038
0.196,2.630,0.217,-44.861,89.294,-125.671
0.208,2.538,0.366,-31.677,87.463,-113.647
0.257,2.407,0.463,-17.334,75.378,-89.355
0.275,2.236,0.538,0.122,51.880,-56.152
0.302,2.006,0.538,16.541,23.987,-23.499
0.345,1.773,0.483,27.344,-1.892,7.935
0.423,1.563,0.406,33.752,-22.644,38.269
0.492,1.368,0.329,32.471,-38.635,60.730
0.534,1.189,0.282,23.010,-47.974,74.524
0.540,1.053,0.258,9.827,-50.781,81.421
0.530,0.929,0.253,-3.418,-47.546,80.261
0.496,0.820,0.290,-13.489,-41.260,72.083
0.449,0.737,0.353,-18.127,-32.715,59.692
0.386,0.691,0.411,-18.433,-20.020,44.800
0.334,0.657,0.479,-16.602,-4.761,30.212
0.282,0.630,0.549,-12.451,9.460,17.090
0.255,0.617,0.623,-5.249,18.311,5.066
0.216,0.600,0.676,2.319,22.278,-3.296
0.194,0.589,0.725,9.583,22.949,-7.019
0.166,0.559,0.758,14.038,20.264,-8.423
0.140,0.517,0.798,15.564,17.029,-7.568
0.127,0.478,0.842,16.846,14.221,-4.333
0.110,0.448,0.877,15.991,12.024,0.916
0.086,0.423,0.892,14.404,10.010,8.057
0.086,0.393,0.898,13.245,7.996,14.954
0.089,0.379,0.907,12.268,5.066,21.057
0.083,0.358,0.916,11.658,1.953,26.367
0.073,0.330,0.912,10.986,-0.427,31.311
0.072,0.299,0.895,9.949,-2.319,36.560
0.077,0.275,0.880,6.287,-5.066,41.931
0.060,0.240,0.874,0.305,-8.301,46.753
0.047,0.208,0.865,-4.883,-11.902,50.171
0.051,0.203,0.859,-8.545,-14.587,53.528
0.060,0.206,0.856,-11.169,-16.113,54.626
0.068,0.213,0.854,-14.038,-16.235,52.429
0.078,0.231,0.868,-14.587,-14.526,48.157
0.079,0.267,0.880,-11.597,-10.376,42.664
0.085,0.317,0.893,-7.202,-5.859,37.476
0.093,0.343,0.908,-5.371,-1.770,31.860
0.065,0.347,0.939,-5.615,1.404,26.245
0.041,0.359,0.959,-3.906,4.028,22.339
0.051,0.368,1.003,-0.122,5.676,21.301
0.036,0.365,1.014,3.906,4.211,21.057
0.029,0.368,1.045,7.568,0.916,20.996
0.022,0.367,1.043,11.597,-1.892,20.752
-0.012,0.369,1.042,17.456,-7.019,18.555
0.036,0.433,1.073,21.851,-7.324,17.639
0.010,0.448,1.048,32.410,-13.184,16.235
0.014,0.451,1.000,39.429,-14.832,10.437
0.020,0.443,1.007,45.837,-16.724,8.179
-0.000,0.430,0.964,48.462,-19.592,5.554
-0.014,0.422,0.942,46.387,-19.409,4.333
-0.036,0.393,0.916,42.908,-18.433,6.897
-0.057,0.355,0.896,37.659,-18.066,11.475
-0.070,0.323,0.893,32.471,-18.433,16.357
-0.062,0.306,0.887,28.870,-18.738,21.484
-0.047,0.304,0.888,24.902,-19.531,25.024
-0.040,0.306,0.899,21.667,-21.118,26.245
-0.040,0.315,0.924,20.386,-21.729,24.658
-0.051,0.322,0.949,22.339,-19.836,22.522
-0.047,0.335,0.948,27.344,-15.930,20.325
-0.065,0.353,0.943,32.288,-12.756,17.212
-0.083,0.367,0.954,36.621,-10.071,13.916
-0.095,0.357,0.941,40.527,-6.836,12.817
-0.083,0.339,0.921,41.992,-5.981,12.817
-0.077,0.325,0.918,41.504,-7.568,12.878
-0.071,0.313,0.921,38.513,-9.583,13.489
-0.074,0.294,0.923,33.325,-11.292,13.000
-0.073,0.280,0.929,28.625,-12.390,12.329
-0.060,0.282,0.935,23.926,-12.024,12.878
-0.059,0.274,0.937,17.883,-10.315,12.817
-0.065,0.259,0.948,11.536,-7.446,10.986
-0.069,0.264,0.978,6.592,-4.089,8.484
-0.072,0.278,1.005,3.723,0.183,5.859
-0.069,0.291,1.019,3.357,5.005,4.089
-0.071,0.304,1.027,4.517,9.399,3.052
-0.062,0.310,1.014,5.432,11.780,2.197
-0.051,0.311,1.024,6.226,11.963,0.977
-0.057,0.316,1.015,7.874,10.254,0.427
-0.043,0.339,1.007,9.460,7.812,0.732
-0.033,0.348,1.002,10.071,4.517,1.465
-0.033,0.340,0.987,10.254,1.526,1.587
-0.048,0.327,0.995,11.108,-1.465,1.099
-0.064,0.325,0.979,10.071,-2.747,0.549
-0.068,0.310,0.952,9.888,-1.343,0.610
-0.085,0.295,0.979,12.573,-0.671,1.038
-0.092,0.292,0.951,12.939,0.671,0.732
-0.096,0.277,0.937,13.672,2.441,0.000
-0.091,0.270,0.918,14.465,3.967,-0.183
-0.082,0.275,0.902,14.465,4.700,0.549
-0.073,0.281,0.898,13.428,4.517,1.465
-0.071,0.280,0.893,11.902,4.578,2.380
-0.066,0.270,0.885,9.216,4.761,3.540
-0.070,0.250,0.876,6.958,4.272,4.883
-0.077,0.244,0.872,4.456,3.479,5.920
-0.079,0.245,0.885,1.892,2.808,7.263
-0.087,0.237,0.897,0.183,2.197,8.667
-0.080,0.234,0.900,0.549,2.197,10.071
-0.061,0.245,0.906,0.916,2.197,11.292
-0.050,0.254,0.900,-0.061,1.892,11.658
-0.042,0.250,0.896,-1.648,2.014,10.986
-0.041,0.246,0.897,-2.380,2.686,9.521

-0.316,-0.725,1.897,-152.039,-43.213,51.086
-0.319,-0.748,2.074,-161.377,-49.622,60.181
-0.285,-0.712,2.289,-152.100,-50.781,67.688
-0.287,-0.703,2.290,-131.897,-51.514,67.017
-0.343,-0.586,2.156,-110.352,-46.265,59.570
-0.399,-0.498,1.954,-82.397,-38.269,49.194
-0.382,-0.373,1.720,-53.772,-32.715,41.565
-0.384,-0.289,1.334,-29.663,-40.527,42.053
-0.380,-0.151,0.839,-13.245,-60.303,51.392
-0.332,0.010,0.409,-6.409,-82.581,58.289
-0.252,0.202,0.018,-14.893,-103.333,60.913
-0.212,0.450,-0.139,-42.603,-114.746,60.791
-0.147,0.780,-0.094,-69.702,-117.981,52.979
-0.208,1.140,0.007,-82.581,-111.084,31.616
-0.348,1.493,0.037,-76.599,-87.341,-0.366
-0.398,1.723,0.005,-54.932,-47.363,-27.832
-0.422,1.878,-0.070,-28.015,-7.935,-49.316
-0.459,1.981,-0.171,-6.409,15.625,-66.040
-0.547,2.029,-0.245,7.080,19.714,-74.402
-0.599,2.007,-0.279,13.062,12.634,-69.580
-0.567,1.981,-0.245,12.695,1.587,-51.453
-0.596,1.914,-0.163,6.592,-13.550,-32.776
-0.585,1.839,-0.079,-0.244,-22.644,-17.578
-0.529,1.747,0.009,-4.456,-25.879,-1.465
-0.437,1.642,0.107,-7.263,-26.428,14.343
-0.328,1.557,0.202,-6.042,-27.283,27.100
-0.213,1.448,0.253,-2.075,-26.245,34.546
-0.117,1.324,0.295,2.441,-21.851,37.842
-0.049,1.206,0.304,7.751,-13.489,37.903
-0.014,1.095,0.305,13.000,-4.333,35.034
0.031,0.974,0.306,15.991,4.822,31.860
0.097,0.866,0.339,15.564,14.954,29.846
0.145,0.812,0.399,13.611,23.560,26.062
0.150,0.780,0.484,11.047,30.029,16.663
0.135,0.734,0.558,9.033,36.072,3.052
0.107,0.676,0.635,11.536,43.091,-9.460
0.071,0.626,0.678,17.090,48.218,-18.433
0.038,0.590,0.714,23.376,49.438,-22.705
-0.001,0.564,0.731,28.320,46.997,-22.888
-0.034,0.541,0.746,31.372,43.335,-19.653
-0.050,0.509,0.743,31.921,40.527,-13.184
-0.058,0.498,0.735,28.870,37.903,-6.042
-0.076,0.498,0.726,25.818,34.790,-0.427
-0.099,0.501,0.720,20.813,32.654,3.235
-0.096,0.482,0.715,13.733,32.410,5.737
-0.099,0.435,0.708,5.554,33.691,8.179
-0.119,0.394,0.717,-2.441,33.447,10.559
-0.136,0.388,0.730,-9.460,31.006,11.719
-0.159,0.394,0.761,-15.320,27.466,12.146
-0.179,0.429,0.790,-19.287,23.743,12.390
-0.208,0.469,0.804,-18.677,21.240,9.583
-0.211,0.502,0.819,-17.212,21.362,4.944
-0.217,0.510,0.831,-14.160,21.729,-0.122
-0.216,0.487,0.840,-12.817,20.264,-4.761
-0.208,0.470,0.855,-12.512,16.418,-5.737
-0.221,0.453,0.871,-10.559,10.620,-3.784
-0.245,0.450,0.885,-7.263,5.188,-2.930
-0.246,0.482,0.898,-1.648,1.099,-3.479
-0.229,0.533,0.914,5.676,-0.977,-3.845
-0.233,0.564,0.927,11.475,-0.366,-5.676
-0.253,0.576,0.936,13.916,2.808,-10.132
-0.265,0.575,0.932,16.235,7.568,-14.221
-0.276,0.569,0.912,18.921,12.512,-15.564
-0.293,0.542,0.871,20.264,16.296,-14.709
-0.295,0.518,0.839,20.386,16.907,-11.658
-0.299,0.489,0.819,18.616,14.160,-6.287
-0.298,0.464,0.795,15.381,9.766,-0.061
-0.281,0.460,0.791,11.047,4.761,6.897
-0.255,0.463,0.799,6.714,-0.122,12.695
-0.232,0.467,0.810,2.563,-2.380,15.320
-0.219,0.470,0.826,-0.366,-1.831,13.916
-0.210,0.484,0.844,-1.099,1.282,10.010
-0.215,0.498,0.850,0.732,6.897,5.249
-0.218,0.506,0.841,3.906,13.000,-0.122
-0.231,0.499,0.835,6.897,16.663,-4.578
-0.235,0.470,0.825,9.216,17.334,-6.958
-0.242,0.436,0.815,9.644,16.296,-6.165
-0.233,0.427,0.831,8.789,12.817,-3.601
-0.229,0.422,0.850,7.263,7.141,0.061
-0.225,0.429,0.875,8.423,0.854,3.235
-0.219,0.449,0.892,12.634,-2.136,4.456
-0.197,0.456,0.917,18.250,-0.854,3.540
-0.169,0.458,0.913,24.963,2.258,1.526
-0.141,0.465,0.924,29.236,4.517,-1.282
-0.129,0.460,0.888,30.151,5.859,-4.456
-0.136,0.431,0.914,26.367,5.798,-8.240
-0.165,0.426,0.899,21.057,6.592,-10.803
-0.173,0.434,0.897,20.142,7.568,-10.620
-0.170,0.419,0.883,18.921,8.789,-8.972
-0.185,0.396,0.878,15.930,8.118,-7.263
-0.217,0.389,0.884,13.428,5.676,-4.944
-0.236,0.391,0.882,13.550,3.845,-2.258
-0.221,0.401,0.872,14.465,5.127,0.244
-0.216,0.422,0.866,15.076,6.531,1.892
-0.234,0.419,0.871,15.747,7.935,1.099
-0.229,0.414,0.876,16.541,10.864,0.549
-0.206,0.410,0.880,17.334,14.160,0.854
-0.188,0.397,0.880,17.090,15.686,-0.061
-0.183,0.388,0.875,15.442,14.648,-1.038
-0.192,0.387,0.892,14.404,12.634,-2.136
-0.186,0.379,0.891,13.977,11.902,-2.686
-0.174,0.383,0.882,14.343,11.536,-1.953
-0.171,0.382,0.892,13.977,9.827,-0.977
-0.166,0.367,0.896,13.428,7.751,0.488
-0.136,0.371,0.888,13.428,6.348,4.395
-0.105,0.384,0.877,12.268,4.761,8.118
-0.093,0.385,0.869,8.789,2.136,9.216
-0.099,0.379,0.879,5.615,-0.366,9.094
-0.099,0.377,0.881,4.089,-0.183,9.155
-0.102,0.372,0.889,3.540,1.526,9.094
-0.102,0.368,0.883,3.540,3.357,8.179
-0.098,0.370,0.872,4.150,3.601,7.324
-0.092,0.381,0.857,5.798,1.770,6.226
-0.080,0.389,0.846,6.531,-0.244,6.348
-0.088,0.379,0.846,5.371,-2.197,5.371
-0.112,0.354,0.854,3.784,-4.211,3.723
-0.138,0.332,0.864,2.747,-6.409,3.174
-0.153,0.308,0.873,1.709,-7.507,3.662
-0.165,0.280,0.882,0.305,-7.385,4.517

0.160,-0.393,2.556,-50.842,61.890,-32.288
0.101,-0.564,2.616,-66.284,60.974,-47.913
0.064,-0.699,2.518,-78.796,46.143,-50.842
0.052,-0.794,2.312,-87.280,16.113,-35.095
0.028,-0.897,2.130,-97.595,-20.630,-9.949
-0.108,-0.869,2.072,-104.126,-54.810,13.184
-0.112,-0.797,1.966,-88.074,-72.693,36.133
0.037,-0.729,1.505,-54.688,-71.838,59.143
0.071,-0.593,0.954,-38.513,-66.833,64.697
0.050,-0.392,0.457,-48.340,-56.396,52.612
0.036,-0.164,0.208,-66.650,-40.955,33.081
0.153,0.198,-0.040,-77.454,-22.034,0.671
0.079,0.630,-0.444,-73.853,-11.597,-50.781
-0.313,1.040,-0.738,-69.153,-12.878,-104.187
-0.490,1.336,-0.885,-69.702,-5.554,-138.611
-0.617,1.658,-0.821,-70.984,6.348,-148.682
-0.815,1.878,-0.724,-62.195,13.184,-150.269
-0.887,1.994,-0.652,-43.579,24.292,-137.939
-0.783,2.051,-0.634,-21.667,36.438,-117.310
-0.749,2.035,-0.601,-2.502,45.715,-102.722
-0.659,1.885,-0.523,9.155,56.091,-90.149
-0.397,1.670,-0.400,13.916,63.538,-65.979
-0.089,1.443,-0.233,16.174,53.589,-29.114
0.191,1.235,-0.129,20.325,28.015,11.169
0.465,1.058,-0.054,23.621,2.075,50.781
0.688,0.935,0.011,20.935,-15.259,77.637
0.805,0.856,0.141,14.404,-22.461,82.886
0.830,0.819,0.270,8.911,-21.545,70.129
0.766,0.816,0.318,9.583,-15.503,47.485
0.641,0.774,0.327,14.343,-9.460,23.621
0.494,0.764,0.326,17.334,-8.423,5.188
0.338,0.772,0.334,18.066,-11.414,-5.676
0.222,0.776,0.352,18.433,-12.329,-11.841
0.170,0.783,0.382,19.287,-9.705,-13.306
0.141,0.802,0.432,19.775,-8.240,-11.780
0.101,0.838,0.488,23.193,-9.216,-10.620
0.066,0.857,0.526,28.381,-8.484,-10.437
0.043,0.855,0.524,34.180,-5.432,-10.010
0.019,0.837,0.503,39.246,-3.540,-7.507
0.005,0.806,0.485,43.091,-4.272,-2.930
0.007,0.765,0.468,44.556,-6.775,2.258
0.007,0.731,0.431,43.884,-10.498,8.179
0.011,0.704,0.397,40.649,-13.794,14.099
0.036,0.676,0.384,33.264,-13.977,18.921
0.069,0.650,0.420,22.644,-11.841,20.874
0.115,0.639,0.466,15.015,-9.277,19.592
0.137,0.649,0.512,10.864,-6.714,18.005
0.137,0.661,0.568,8.545,-3.052,16.174
0.147,0.648,0.612,8.240,0.488,13.550
0.136,0.640,0.633,10.010,1.099,9.399
0.129,0.635,0.646,12.878,-0.610,6.165
0.120,0.615,0.655,14.404,-2.563,4.578
0.093,0.592,0.662,13.916,-5.188,3.174
0.060,0.589,0.654,13.855,-7.263,1.953
0.011,0.602,0.636,12.207,-6.104,2.686
-0.025,0.603,0.631,6.042,-0.793,6.775
-0.024,0.587,0.675,-2.075,6.226,13.733
0.007,0.570,0.738,-9.277,10.010,19.165
0.022,0.576,0.806,-14.465,8.911,20.447
0.028,0.592,0.854,-14.099,7.690,19.043
0.037,0.617,0.892,-10.315,8.850,14.526
0.049,0.611,0.905,-6.287,11.230,7.751
0.055,0.619,0.930,-3.784,13.611,0.488
0.037,0.622,0.943,0.183,14.282,-7.568
-0.012,0.626,0.940,5.920,13.184,-16.602
-0.078,0.630,0.909,11.902,10.986,-22.705
-0.130,0.618,0.857,17.334,11.536,-20.325
-0.126,0.578,0.820,19.958,14.038,-8.118
