aX,aY,aZ,gX,gY,gZ
-0.610,-1.481,1.048,206.116,-114.990,-56.458
-0.612,-1.800,1.337,205.627,-108.521,-55.420
-0.628,-2.057,1.593,195.435,-104.431,-52.979
-0.633,-2.252,1.807,175.049,-97.473,-48.706
-0.614,-2.383,1.963,151.001,-88.196,-44.312
-0.621,-2.526,2.099,126.221,-78.003,-38.635
-0.657,-2.676,2.247,106.934,-68.970,-37.354
-0.687,-2.785,2.390,94.910,-63.843,-42.725
-0.662,-2.863,2.498,78.857,-55.359,-43.152
-0.657,-2.938,2.540,57.800,-39.246,-33.875
-0.637,-2.945,2.538,34.729,-19.104,-15.137
-0.628,-2.874,2.499,11.292,0.122,6.897
-0.661,-2.761,2.437,-12.695,16.357,27.710
-0.671,-2.620,2.337,-37.231,30.212,43.152
-0.663,-2.430,2.207,-59.387,40.466,52.673
-0.668,-2.237,2.045,-82.886,51.758,59.570
-0.667,-2.026,1.854,-106.750,67.078,65.002
-0.622,-1.802,1.678,-125.122,79.651,68.237
-0.585,-1.579,1.495,-138.855,86.792,69.153
-0.540,-1.364,1.300,-150.635,91.064,68.848
-0.491,-1.179,1.125,-155.823,93.445,65.308
-0.442,-1.044,0.983,-157.959,94.177,58.472
-0.359,-0.935,0.851,-155.884,93.018,49.133
-0.292,-0.854,0.735,-150.513,88.501,39.063
-0.240,-0.777,0.625,-143.188,83.618,31.250
-0.201,-0.698,0.517,-132.324,80.139,24.170
-0.166,-0.622,0.404,-121.277,78.125,18.738
-0.138,-0.545,0.303,-113.098,76.965,15.137
-0.106,-0.477,0.221,-106.567,76.111,11.047
-0.069,-0.421,0.170,-101.440,77.026,7.446
-0.028,-0.366,0.129,-97.961,79.468,5.920
0.001,-0.311,0.094,-94.238,80.383,6.958
0.018,-0.247,0.067,-90.820,80.444,10.742
0.029,-0.173,0.055,-86.487,80.688,15.686
0.040,-0.094,0.035,-81.604,80.139,21.790
0.040,-0.020,-0.005,-79.285,79.651,27.649
0.042,0.043,-0.044,-79.163,77.881,30.884
0.054,0.086,-0.069,-79.041,73.975,31.494
0.063,0.129,-0.111,-79.895,69.275,31.250
0.072,0.173,-0.166,-79.468,63.171,30.579
0.089,0.227,-0.217,-75.989,55.237,29.724
0.098,0.279,-0.262,-71.228,48.889,28.809
0.126,0.326,-0.315,-65.857,43.396,27.954
0.148,0.383,-0.382,-59.021,34.912,28.015
0.164,0.455,-0.439,-49.988,24.780,28.625
0.157,0.532,-0.492,-39.978,14.099,28.320
0.145,0.603,-0.529,-28.870,3.601,26.306
0.136,0.666,-0.557,-16.235,-7.629,22.522
0.126,0.716,-0.568,-2.136,-19.775,16.357
0.119,0.747,-0.567,14.465,-32.043,9.338
0.085,0.742,-0.546,30.579,-42.847,2.441
0.051,0.724,-0.526,45.166,-49.927,-4.578
0.058,0.682,-0.516,58.167,-54.932,-12.695
0.021,0.623,-0.497,69.519,-64.392,-19.531
-0.009,0.545,-0.487,79.407,-75.378,-24.963
-0.063,0.465,-0.464,90.637,-85.022,-27.283
-0.162,0.402,-0.427,105.103,-90.027,-29.175
-0.211,0.332,-0.400,122.253,-88.684,-34.302
-0.245,0.227,-0.358,139.954,-91.736,-41.809
-0.281,0.113,-0.271,157.227,-102.783,-48.828
-0.348,-0.023,-0.160,174.805,-114.197,-53.101
-0.488,-0.210,-0.015,193.298,-118.408,-53.711
-0.645,-0.463,0.174,210.327,-114.746,-56.824
-0.763,-0.817,0.424,221.008,-113.159,-67.566
-0.846,-1.279,0.751,218.079,-119.080,-83.679
-0.845,-1.748,1.127,203.369,-127.808,-100.525
-0.794,-2.143,1.491,182.068,-136.414,-112.915
-0.766,-2.478,1.834,159.058,-141.052,-113.220
-0.760,-2.750,2.135,139.832,-137.085,-100.098
-0.751,-2.933,2.394,129.272,-125.488,-77.759
-0.746,-3.057,2.607,124.634,-106.567,-50.842
-0.737,-3.157,2.811,119.568,-81.421,-22.644
-0.807,-3.236,2.930,119.385,-58.044,-6.042
-0.806,-3.206,2.989,107.971,-35.645,2.747
-0.790,-3.145,2.938,74.097,-12.329,15.686
-0.764,-3.030,2.815,29.297,8.789,32.166
-0.739,-2.862,2.654,-16.663,27.527,49.316
-0.722,-2.627,2.468,-57.678,41.870,63.049
-0.722,-2.361,2.228,-91.736,53.650,74.097
-0.733,-2.067,1.949,-117.981,64.758,82.275
-0.741,-1.806,1.672,-138.916,75.684,85.266
-0.704,-1.574,1.432,-153.870,82.520,81.726
-0.608,-1.366,1.234,-161.011,84.229,72.876
-0.521,-1.192,1.062,-164.368,84.595,63.660
-0.439,-1.039,0.899,-164.124,84.656,54.810
-0.366,-0.914,0.770,-156.799,83.435,45.166
-0.310,-0.809,0.682,-142.639,82.153,36.011
-0.267,-0.726,0.629,-125.793,84.412,29.114
-0.235,-0.655,0.576,-109.680,88.501,22.888
-0.208,-0.590,0.512,-97.107,89.539,14.954
-0.166,-0.550,0.441,-91.492,88.562,7.141
-0.076,-0.539,0.385,-91.797,86.182,1.953
-0.057,-0.511,0.327,-96.985,82.458,1.282
-0.067,-0.449,0.241,-104.187,81.726,2.930
-0.057,-0.375,0.116,-113.281,85.510,4.028
-0.052,-0.304,-0.016,-121.704,86.731,3.967
-0.027,-0.239,-0.128,-127.319,83.313,2.991
0.000,-0.184,-0.212,-131.836,81.970,0.488
0.028,-0.135,-0.302,-132.202,83.679,-0.305
0.057,-0.077,-0.392,-126.465,84.473,1.526
0.089,-0.029,-0.461,-115.601,82.153,4.333
0.135,0.002,-0.490,-100.220,75.806,8.240
0.189,0.009,-0.472,-83.618,67.017,12.573
0.224,0.025,-0.450,-69.702,55.542,20.020
0.203,0.063,-0.442,-59.265,43.579,29.602
0.168,0.127,-0.431,-49.438,33.386,38.025
0.139,0.201,-0.426,-40.283,23.437,43.091
0.120,0.289,-0.418,-33.691,11.414,44.800
0.092,0.358,-0.396,-28.442,-2.380,43.091
0.065,0.442,-0.382,-25.024,-15.381,39.978
0.013,0.533,-0.373,-21.057,-26.306,34.302
0.010,0.632,-0.359,-14.954,-34.424,26.306
0.006,0.705,-0.359,-6.165,-43.945,18.738
-0.016,0.762,-0.348,8.484,-54.626,14.099
-0.057,0.811,-0.317,28.259,-61.096,12.024
-0.100,0.838,-0.281,49.438,-62.561,11.414
-0.153,0.851,-0.255,70.313,-62.927,10.254
-0.196,0.840,-0.239,87.158,-64.453,5.798
-0.246,0.785,-0.224,98.877,-68.237,-0.732

-0.671,-1.283,0.732,282.471,-52.246,-74.707
-0.630,-1.728,1.003,258.057,-59.082,-95.581
-0.578,-2.142,1.269,222.473,-72.327,-110.718
-0.556,-2.557,1.557,177.490,-86.426,-119.751
-0.466,-2.934,1.848,132.385,-96.802,-121.826
-0.391,-3.219,2.063,104.370,-102.539,-116.943
-0.420,-3.402,2.189,105.103,-102.478,-104.248
-0.449,-3.508,2.302,114.380,-88.684,-74.951
-0.495,-3.550,2.388,117.432,-65.430,-41.016
-0.544,-3.540,2.455,102.112,-42.969,-9.155
-0.636,-3.486,2.453,68.604,-22.827,16.113
-0.664,-3.368,2.401,21.973,-3.052,34.363
-0.679,-3.223,2.319,-26.733,9.338,44.128
-0.661,-3.023,2.232,-68.054,17.273,49.316
-0.639,-2.789,2.122,-98.755,25.391,53.162
-0.657,-2.541,1.999,-120.422,34.424,57.617
-0.684,-2.277,1.860,-137.390,44.983,62.866
-0.700,-2.050,1.698,-156.372,56.946,66.833
-0.695,-1.862,1.543,-176.697,68.909,66.956
-0.661,-1.706,1.423,-189.697,77.698,63.110
-0.611,-1.581,1.316,-197.815,86.365,58.044
-0.548,-1.452,1.196,-204.651,95.459,53.162
-0.484,-1.314,1.064,-206.970,100.464,48.767
-0.425,-1.171,0.940,-204.529,102.356,45.471
-0.364,-1.030,0.801,-197.998,104.187,42.114
-0.319,-0.891,0.661,-187.317,106.262,38.574
-0.276,-0.763,0.538,-172.424,106.140,32.898
-0.252,-0.664,0.420,-155.823,104.065,24.353
-0.248,-0.594,0.333,-143.860,101.807,16.785
-0.237,-0.529,0.248,-135.986,102.966,11.169
-0.198,-0.449,0.145,-130.981,109.070,6.653
-0.143,-0.366,0.035,-129.578,113.953,4.211
-0.083,-0.293,-0.081,-129.944,112.061,4.150
-0.034,-0.217,-0.188,-130.554,105.042,5.371
0.013,-0.135,-0.283,-129.395,97.595,8.972
0.054,-0.060,-0.381,-126.953,91.614,15.747
0.115,0.024,-0.473,-121.521,83.862,25.757
0.131,0.097,-0.552,-111.267,73.486,37.109
0.114,0.168,-0.594,-98.938,68.298,47.607
0.079,0.232,-0.595,-81.970,67.810,54.565
0.096,0.292,-0.602,-65.063,69.458,56.091
0.126,0.330,-0.612,-53.528,67.017,54.138
0.135,0.349,-0.598,-46.204,56.885,50.598
0.123,0.374,-0.576,-40.039,45.166,45.898
0.148,0.406,-0.583,-36.316,38.635,39.429
0.157,0.447,-0.626,-34.424,29.968,32.532
0.132,0.491,-0.647,-30.701,15.869,23.499
0.101,0.523,-0.653,-24.597,1.099,12.451
0.071,0.552,-0.654,-16.235,-9.827,1.892
0.070,0.575,-0.644,-5.554,-19.775,-8.057
0.062,0.594,-0.624,8.423,-32.654,-15.442
0.047,0.601,-0.572,26.611,-46.021,-19.043
0.020,0.599,-0.505,46.814,-56.396,-17.883
-0.024,0.603,-0.441,67.749,-62.988,-15.198
-0.064,0.610,-0.389,85.632,-63.782,-12.512
-0.100,0.616,-0.354,101.013,-63.477,-9.705
-0.159,0.615,-0.333,113.464,-66.162,-8.057
-0.233,0.595,-0.322,120.056,-72.449,-9.155
-0.270,0.537,-0.318,121.887,-81.177,-16.113
-0.300,0.448,-0.291,120.605,-90.820,-27.466
-0.307,0.357,-0.266,121.094,-98.999,-38.513
-0.323,0.259,-0.262,125.793,-103.577,-45.471
-0.357,0.151,-0.265,137.451,-101.196,-49.377
-0.392,0.018,-0.260,158.142,-97.717,-51.575
-0.420,-0.199,-0.179,185.547,-98.450,-54.443
-0.498,-0.462,0.030,217.346,-103.394,-55.786
-0.620,-0.766,0.293,246.765,-103.760,-57.373
-0.769,-1.138,0.606,264.587,-99.365,-65.613
-0.992,-1.662,1.001,266.296,-96.313,-83.862
-1.000,-2.232,1.443,249.329,-98.450,-112.122
-0.873,-2.742,1.860,221.863,-110.718,-142.639
-0.662,-3.139,2.225,187.073,-121.826,-152.771
-0.526,-3.357,2.469,158.081,-117.737,-131.592
-0.518,-3.427,2.549,152.039,-102.600,-97.656
-0.575,-3.364,2.542,152.466,-83.130,-60.364
-0.670,-3.323,2.519,141.296,-62.378,-27.222
-0.727,-3.323,2.544,117.249,-44.006,-6.470
-0.745,-3.356,2.616,84.351,-29.541,8.057
-0.726,-3.370,2.665,46.509,-17.456,20.386
-0.701,-3.326,2.662,6.531,-6.409,32.715
-0.695,-3.192,2.592,-29.480,3.418,45.776
-0.688,-2.989,2.443,-60.547,17.334,58.960
-0.687,-2.748,2.244,-87.769,32.898,71.472
-0.687,-2.494,2.034,-111.511,45.837,84.717
-0.714,-2.229,1.862,-132.141,56.580,96.741
-0.738,-1.970,1.672,-150.940,68.848,102.295
-0.703,-1.734,1.485,-169.861,81.482,99.243
-0.643,-1.535,1.323,-187.134,89.233,90.576
-0.575,-1.356,1.156,-199.646,93.445,80.566
-0.503,-1.170,0.983,-205.444,96.436,71.350
-0.415,-1.000,0.809,-205.444,99.915,63.110
-0.346,-0.855,0.636,-200.378,103.027,55.176
-0.288,-0.726,0.469,-189.575,103.394,46.570
-0.240,-0.617,0.314,-173.584,101.379,35.706
-0.209,-0.537,0.176,-155.945,98.022,22.095
-0.180,-0.475,0.086,-138.977,94.299,10.620
-0.163,-0.412,0.010,-124.878,93.506,2.991
-0.145,-0.347,-0.064,-112.793,96.069,-2.869
-0.111,-0.293,-0.146,-103.760,99.548,-8.301
-0.041,-0.273,-0.225,-97.900,103.088,-11.841
0.030,-0.259,-0.286,-94.788,104.431,-11.169
0.089,-0.224,-0.353,-91.553,103.760,-6.042
0.126,-0.170,-0.421,-89.905,100.952,2.258
0.153,-0.104,-0.476,-85.999,95.032,11.230
0.166,-0.046,-0.525,-81.177,87.219,19.836
0.184,0.012,-0.540,-75.195,78.430,26.367
0.192,0.062,-0.525,-68.481,68.054,31.128
0.193,0.101,-0.508,-63.660,59.753,34.241
0.193,0.151,-0.493,-58.960,55.115,35.156
0.173,0.206,-0.484,-53.467,48.950,35.095
0.157,0.261,-0.467,-48.279,39.978,33.081
0.145,0.306,-0.438,-44.434,29.175,28.015
0.114,0.364,-0.404,-41.016,16.846,20.081
0.106,0.430,-0.388,-36.560,4.761,9.644
0.110,0.478,-0.385,-30.579,-5.676,-1.831
0.141,0.512,-0.362,-21.179,-16.724,-10.315
0.158,0.550,-0.298,-8.789,-27.283,-13.245
0.127,0.582,-0.223,5.310,-33.325,-9.521
0.066,0.632,-0.178,21.729,-33.325,-2.625

-0.430,-1.419,1.095,190.002,-105.713,-67.078
-0.423,-1.693,1.365,172.668,-103.699,-67.078
-0.381,-1.895,1.560,160.339,-94.299,-56.274
-0.385,-2.104,1.725,153.198,-82.031,-41.809
-0.382,-2.301,1.867,142.456,-68.359,-27.527
-0.377,-2.420,1.981,134.888,-58.411,-19.531
-0.450,-2.527,2.020,136.902,-54.443,-25.391
-0.456,-2.639,2.055,126.587,-44.617,-30.640
-0.452,-2.777,2.066,104.919,-34.912,-31.372
-0.426,-2.846,2.054,80.139,-29.541,-29.541
-0.394,-2.879,2.030,54.810,-23.132,-19.836
-0.412,-2.883,1.985,29.358,-12.512,-4.272
-0.444,-2.855,1.955,6.592,-1.038,12.451
-0.465,-2.802,1.927,-10.925,8.423,24.780
-0.486,-2.719,1.880,-26.001,19.043,32.593
-0.497,-2.582,1.814,-42.236,30.884,38.452
-0.467,-2.418,1.722,-60.181,40.161,41.992
-0.437,-2.250,1.613,-79.041,45.166,44.495
-0.408,-2.047,1.497,-96.191,47.424,46.936
-0.399,-1.870,1.375,-112.000,50.293,47.668
-0.375,-1.713,1.246,-127.563,54.016,46.875
-0.342,-1.548,1.102,-139.771,57.007,43.640
-0.300,-1.388,0.984,-146.790,58.594,39.368
-0.268,-1.240,0.891,-147.766,57.495,36.072
-0.242,-1.101,0.812,-142.517,57.251,32.898
-0.210,-0.961,0.727,-133.728,60.303,30.823
-0.205,-0.833,0.635,-123.718,63.843,28.625
-0.175,-0.707,0.531,-114.075,66.772,23.132
-0.139,-0.599,0.427,-106.018,65.430,14.282
-0.129,-0.505,0.318,-100.769,58.838,4.211
-0.096,-0.437,0.234,-97.046,53.162,-5.249
-0.023,-0.399,0.195,-94.727,50.903,-11.292
0.016,-0.364,0.156,-93.445,50.903,-10.437
0.034,-0.306,0.104,-92.346,51.514,-3.906
0.031,-0.254,0.048,-90.881,52.002,3.540
0.040,-0.207,0.007,-88.867,52.673,10.864
0.031,-0.164,-0.026,-87.158,53.101,17.090
0.028,-0.122,-0.047,-86.487,53.162,20.996
0.028,-0.079,-0.080,-87.341,52.246,22.644
0.063,-0.057,-0.102,-90.637,51.025,22.644
0.088,-0.029,-0.102,-94.543,47.974,23.682
0.084,0.011,-0.106,-95.947,44.312,26.733
0.075,0.066,-0.124,-94.421,42.114,31.067
0.057,0.124,-0.141,-89.294,40.344,34.729
0.050,0.174,-0.143,-80.322,38.147,37.415
0.042,0.218,-0.131,-69.153,35.278,40.100
0.053,0.257,-0.123,-58.167,32.166,41.809
0.061,0.287,-0.114,-47.302,27.039,43.091
0.057,0.328,-0.111,-35.522,21.851,44.556
0.021,0.386,-0.108,-22.461,17.822,46.265
-0.009,0.458,-0.100,-8.484,13.672,45.837
-0.026,0.523,-0.079,3.662,8.057,41.260
-0.016,0.551,-0.057,14.038,0.977,32.593
0.006,0.539,-0.024,23.071,-8.118,23.621
0.024,0.503,0.014,30.640,-15.320,16.846
0.032,0.484,0.039,37.292,-19.348,13.245
0.001,0.470,0.040,43.945,-23.071,10.681
-0.052,0.453,0.039,50.476,-27.405,4.944
-0.088,0.425,0.049,57.190,-31.433,-6.226
-0.057,0.355,0.087,62.927,-34.607,-22.339
-0.003,0.235,0.128,66.406,-40.405,-36.743
0.015,0.101,0.168,72.266,-49.744,-44.434
0.006,-0.023,0.206,83.435,-59.204,-44.128
-0.023,-0.142,0.271,99.182,-64.880,-37.903
-0.062,-0.243,0.352,117.432,-65.491,-28.931
-0.133,-0.356,0.447,136.108,-61.890,-19.531
-0.200,-0.488,0.564,154.175,-55.481,-12.268
-0.234,-0.642,0.708,165.222,-48.767,-10.376
-0.213,-0.800,0.860,167.297,-45.654,-13.306
-0.184,-0.923,0.968,158.020,-43.091,-18.066
-0.164,-0.977,1.013,141.907,-41.748,-22.888
-0.154,-1.005,1.014,124.573,-42.053,-26.184
-0.165,-1.067,1.006,108.337,-40.955,-27.466
-0.165,-1.157,1.008,96.802,-38.696,-26.978
-0.153,-1.269,1.029,93.567,-34.790,-25.085
-0.137,-1.363,1.076,98.572,-26.672,-18.799
-0.093,-1.428,1.132,105.652,-15.747,-8.301
-0.123,-1.456,1.178,111.816,-8.484,-2.441
-0.179,-1.465,1.199,112.854,-7.874,-6.104
-0.172,-1.498,1.193,99.060,-7.202,-12.512
-0.169,-1.586,1.189,80.444,-8.667,-20.081
-0.196,-1.705,1.237,58.960,-12.085,-25.146
-0.190,-1.833,1.312,38.635,-16.479,-29.358
-0.181,-1.981,1.404,23.254,-19.897,-32.471
-0.173,-2.103,1.509,15.137,-18.494,-32.410
-0.148,-2.175,1.601,12.878,-12.207,-27.039
-0.151,-2.223,1.675,8.301,-4.211,-18.616
-0.160,-2.225,1.707,-0.610,1.648,-9.949
-0.150,-2.181,1.689,-12.939,7.629,-2.258
-0.126,-2.115,1.623,-26.611,14.038,4.700
-0.118,-2.032,1.531,-39.368,19.348,12.634
-0.116,-1.921,1.421,-49.133,23.560,20.813
-0.130,-1.798,1.307,-56.580,26.794,28.198
-0.144,-1.667,1.193,-62.805,29.053,33.447
-0.129,-1.508,1.087,-66.833,31.250,37.170
-0.134,-1.380,1.010,-69.702,31.128,38.513
-0.128,-1.261,0.972,-71.594,30.396,38.147
-0.135,-1.160,0.954,-72.327,31.189,37.231
-0.130,-1.067,0.920,-75.378,34.790,35.400
-0.103,-0.979,0.860,-81.299,37.659,31.738
-0.084,-0.886,0.789,-87.708,37.476,26.794
-0.073,-0.799,0.718,-93.018,35.522,22.278
-0.034,-0.720,0.660,-96.252,33.203,16.724
-0.008,-0.651,0.602,-98.145,29.419,10.254
0.024,-0.587,0.527,-98.145,24.292,5.493
0.035,-0.536,0.460,-95.337,17.456,2.930
0.045,-0.508,0.429,-90.393,10.376,2.197
0.010,-0.482,0.434,-82.581,5.981,3.601
-0.016,-0.422,0.417,-73.486,9.827,4.150
-0.013,-0.367,0.395,-67.017,19.836,3.113
0.011,-0.333,0.380,-62.805,26.855,1.770
0.011,-0.305,0.379,-61.584,28.992,1.526
0.013,-0.285,0.369,-63.782,30.945,2.625
0.031,-0.268,0.333,-69.275,32.959,3.601
0.050,-0.246,0.271,-75.928,32.043,4.395
0.055,-0.225,0.212,-79.407,27.405,6.104
0.048,-0.209,0.184,-76.477,22.339,9.583
0.047,-0.187,0.161,-68.481,19.836,15.259
0.050,-0.161,0.154,-58.472,19.043,21.545

-0.250,-1.207,0.921,151.062,-42.236,-38.696
-0.234,-1.347,1.045,138.245,-45.349,-39.063
-0.232,-1.406,1.133,123.230,-44.861,-36.621
-0.204,-1.408,1.158,108.582,-37.109,-32.043
-0.207,-1.389,1.132,95.581,-28.198,-25.391
-0.202,-1.325,1.059,85.144,-22.034,-17.029
-0.318,-1.293,0.973,85.205,-19.897,-15.503
-0.342,-1.313,0.917,87.097,-19.104,-21.118
-0.330,-1.424,0.908,82.703,-17.761,-27.161
-0.297,-1.530,0.943,80.444,-22.217,-32.471
-0.325,-1.673,1.051,75.623,-25.391,-34.119
-0.347,-1.814,1.200,69.763,-24.475,-33.020
-0.319,-1.931,1.343,62.378,-23.499,-29.053
-0.327,-2.024,1.440,53.650,-22.766,-22.400
-0.401,-2.083,1.515,43.640,-19.226,-11.475
-0.488,-2.116,1.582,31.799,-12.817,-0.977
-0.508,-2.133,1.639,17.517,-5.859,2.625
-0.515,-2.164,1.707,0.183,-1.953,1.709
-0.492,-2.183,1.771,-16.296,1.648,0.000
-0.458,-2.187,1.796,-33.813,8.423,-0.427
-0.447,-2.172,1.775,-50.964,16.052,1.465
-0.436,-2.093,1.705,-63.782,24.353,5.676
-0.425,-1.996,1.615,-74.890,33.386,11.780
-0.396,-1.879,1.498,-84.717,41.077,17.456
-0.371,-1.742,1.370,-92.102,45.227,23.071
-0.350,-1.603,1.234,-97.595,47.180,27.771
-0.301,-1.463,1.095,-101.013,48.096,30.823
-0.256,-1.333,0.996,-103.760,46.875,32.593
-0.236,-1.242,0.915,-105.652,44.922,34.607
-0.223,-1.154,0.869,-105.652,43.945,34.302
-0.199,-1.062,0.847,-103.149,44.861,32.043
-0.166,-1.000,0.817,-102.295,50.049,29.602
-0.164,-0.955,0.784,-102.600,55.359,28.015
-0.139,-0.886,0.741,-100.037,57.617,24.109
-0.120,-0.831,0.701,-97.595,58.533,20.081
-0.101,-0.772,0.653,-96.558,59.326,17.151
-0.084,-0.686,0.600,-92.041,58.289,14.771
-0.082,-0.614,0.536,-85.815,54.138,13.245
-0.067,-0.546,0.452,-82.642,48.950,12.573
-0.058,-0.501,0.379,-80.750,40.710,13.000
-0.098,-0.480,0.382,-78.430,31.677,13.367
-0.144,-0.455,0.395,-74.402,29.419,8.911
-0.120,-0.416,0.395,-74.463,37.964,3.967
-0.085,-0.403,0.376,-80.933,48.645,2.563
-0.089,-0.381,0.354,-88.562,52.979,2.258
-0.090,-0.350,0.325,-93.384,54.504,3.052
-0.086,-0.345,0.300,-98.816,58.105,6.531
-0.075,-0.340,0.265,-105.164,62.439,12.085
-0.052,-0.331,0.214,-109.070,64.575,17.761
-0.014,-0.315,0.163,-109.497,63.965,22.766
0.017,-0.301,0.128,-108.459,62.683,28.687
0.027,-0.279,0.102,-104.797,62.073,37.598
0.038,-0.229,0.072,-97.412,63.477,48.523
0.051,-0.160,0.058,-86.670,65.674,59.143
0.044,-0.091,0.072,-74.707,65.247,68.848
0.035,-0.017,0.083,-63.171,62.988,77.332
0.023,0.054,0.081,-53.040,60.242,82.764
0.006,0.130,0.094,-44.983,55.786,84.839
-0.014,0.188,0.102,-39.185,50.110,83.069
-0.015,0.237,0.109,-36.987,45.288,78.247
0.000,0.298,0.106,-34.058,38.391,70.984
0.006,0.330,0.118,-32.349,29.907,61.707
0.022,0.361,0.134,-30.762,20.996,53.162
0.023,0.397,0.160,-27.344,12.268,44.922
0.039,0.440,0.194,-22.278,5.859,36.560
0.045,0.497,0.224,-14.954,1.465,28.503
0.058,0.536,0.226,-7.263,-1.404,21.667
0.067,0.568,0.210,-0.061,-3.967,15.503
0.070,0.590,0.184,8.728,-6.775,9.094
0.055,0.582,0.150,18.982,-10.010,2.869
0.059,0.581,0.108,30.334,-12.024,-3.235
0.050,0.561,0.056,40.649,-13.672,-9.705
0.021,0.543,0.017,53.162,-18.188,-15.076
0.002,0.527,-0.016,66.162,-22.705,-20.508
-0.026,0.453,-0.048,75.134,-28.320,-27.039
-0.037,0.362,-0.040,82.275,-36.133,-33.508
-0.038,0.269,-0.021,88.013,-42.480,-40.771
0.010,0.164,-0.007,87.341,-45.044,-46.265
0.018,0.075,-0.001,82.825,-50.659,-46.936
-0.004,0.004,-0.040,77.026,-55.481,-46.021
-0.049,-0.044,-0.107,72.571,-57.007,-45.044
-0.127,-0.085,-0.185,78.857,-61.340,-44.983
-0.158,-0.160,-0.213,96.191,-66.528,-47.974
-0.165,-0.234,-0.169,121.216,-70.251,-49.622
-0.234,-0.359,-0.042,149.353,-68.481,-47.241
-0.283,-0.480,0.123,176.392,-59.387,-42.603
-0.304,-0.620,0.283,194.153,-48.889,-43.213
-0.327,-0.777,0.429,196.167,-46.936,-51.331
-0.329,-0.951,0.586,187.805,-55.908,-63.843
-0.285,-1.158,0.766,174.377,-67.444,-75.073
-0.289,-1.351,0.927,161.926,-75.134,-80.933
-0.324,-1.566,1.044,151.611,-74.768,-79.773
-0.297,-1.810,1.174,146.240,-69.397,-78.064
-0.325,-2.030,1.350,156.189,-67.200,-83.252
-0.293,-2.167,1.505,161.072,-57.983,-78.430
-0.280,-2.260,1.613,157.349,-44.922,-60.730
-0.246,-2.318,1.654,150.513,-35.400,-34.668
-0.272,-2.321,1.690,136.292,-28.198,-20.081
-0.312,-2.308,1.744,113.403,-20.935,-14.038
-0.318,-2.303,1.771,88.074,-17.090,-14.282
-0.327,-2.320,1.756,63.232,-16.296,-17.883
-0.348,-2.384,1.834,33.630,-12.939,-17.334
-0.349,-2.440,1.859,8.972,-10.925,-16.235
-0.325,-2.447,1.892,-6.592,-9.583,-14.221
-0.316,-2.442,1.894,-18.921,-6.836,-7.446
-0.320,-2.376,1.836,-26.672,-0.488,1.160
-0.316,-2.251,1.712,-33.752,9.766,11.719
-0.315,-2.105,1.572,-41.687,20.691,22.156
-0.316,-1.957,1.425,-47.546,29.358,29.602
-0.304,-1.823,1.295,-54.321,36.194,33.386
-0.296,-1.708,1.190,-61.951,40.771,36.255
-0.267,-1.613,1.107,-69.580,43.640,36.438
-0.221,-1.523,1.042,-76.111,44.983,34.790
-0.190,-1.458,0.986,-81.909,44.678,33.508
-0.169,-1.396,0.922,-87.891,43.884,33.752
-0.191,-1.355,0.885,-92.773,42.236,34.729
-0.214,-1.311,0.893,-95.764,41.687,33.569
-0.183,-1.247,0.878,-98.755,45.959,29.602
-0.123,-1.199,0.834,-106.750,52.063,27.344

-0.101,-1.151,0.771,-127.197,54.565,31.799
-0.081,-1.115,0.738,-135.010,56.824,34.058
-0.054,-1.042,0.665,-140.808,62.866,36.865
-0.049,-0.964,0.564,-146.118,69.458,44.495
-0.061,-0.861,0.442,-147.644,73.730,54.932
-0.074,-0.763,0.335,-142.700,74.280,65.552
-0.110,-0.662,0.257,-135.925,72.632,69.336
-0.153,-0.549,0.182,-127.808,70.740,67.383
-0.161,-0.445,0.092,-120.117,68.237,63.721
-0.154,-0.324,0.021,-114.319,63.904,57.617
-0.148,-0.222,-0.032,-111.328,58.899,49.438
-0.136,-0.142,-0.064,-113.159,55.786,43.945
-0.114,-0.066,-0.101,-117.249,55.237,40.588
-0.088,-0.009,-0.126,-121.643,55.847,38.696
-0.050,0.044,-0.161,-124.695,55.420,35.828
-0.004,0.102,-0.195,-123.718,54.321,32.898
0.044,0.153,-0.193,-117.188,51.758,32.959
0.075,0.188,-0.176,-106.323,49.133,37.415
0.099,0.239,-0.165,-93.994,48.706,44.250
0.103,0.304,-0.150,-79.895,47.302,50.720
0.098,0.362,-0.140,-65.674,43.823,53.284
0.084,0.438,-0.124,-52.917,39.368,51.575
0.079,0.498,-0.091,-39.551,33.569,46.265
0.088,0.529,-0.053,-29.968,27.466,37.720
0.110,0.544,-0.007,-23.254,19.226,27.893
0.132,0.561,0.036,-16.541,8.606,16.846
0.152,0.587,0.062,-9.827,-1.526,6.470
0.175,0.582,0.091,-4.395,-11.597,-2.625
0.172,0.554,0.116,2.197,-23.071,-10.986
0.146,0.522,0.127,10.986,-30.701,-18.188
0.175,0.490,0.134,21.606,-31.006,-22.827
0.232,0.439,0.121,34.790,-31.921,-21.851
0.248,0.396,0.114,49.194,-36.377,-17.395
0.190,0.405,0.047,64.453,-41.016,-11.169
0.149,0.438,-0.046,82.764,-41.321,-6.226
0.094,0.452,-0.135,105.347,-45.593,-5.859
0.026,0.420,-0.188,126.587,-56.824,-11.047
-0.074,0.360,-0.181,145.630,-68.420,-20.691
-0.178,0.268,-0.134,163.086,-76.965,-34.302
-0.207,0.122,-0.035,173.950,-85.022,-50.781
-0.256,-0.036,0.064,177.429,-94.971,-66.040
-0.329,-0.197,0.163,175.537,-102.051,-76.843
-0.419,-0.387,0.228,173.279,-102.234,-85.266
-0.465,-0.600,0.303,172.913,-99.731,-93.018
-0.534,-0.836,0.434,177.795,-100.952,-99.182
-0.588,-1.110,0.601,183.655,-101.440,-102.966
-0.629,-1.418,0.810,190.308,-96.619,-105.896
-0.590,-1.650,0.985,198.303,-88.074,-104.370
-0.580,-1.827,1.138,203.674,-80.261,-98.633
-0.596,-1.989,1.297,201.355,-72.205,-89.355
-0.621,-2.143,1.459,195.312,-65.430,-83.496
-0.706,-2.337,1.614,185.547,-61.523,-89.783
-0.664,-2.493,1.796,163.269,-56.763,-98.511
-0.544,-2.653,1.892,132.080,-50.781,-101.013
-0.451,-2.759,1.968,94.360,-41.687,-94.604
-0.437,-2.836,1.995,53.589,-30.518,-73.486
-0.446,-2.876,1.998,17.395,-16.663,-45.593
-0.467,-2.837,1.966,-11.597,-2.136,-18.494
-0.486,-2.738,1.880,-33.875,13.306,4.822
-0.469,-2.587,1.747,-52.124,29.724,27.100
-0.455,-2.402,1.590,-67.993,43.213,51.392
-0.462,-2.171,1.417,-80.322,55.054,74.219
-0.456,-1.954,1.232,-87.402,66.345,89.783
-0.449,-1.712,1.083,-91.553,73.730,97.229
-0.450,-1.524,0.954,-97.290,75.989,99.426
-0.426,-1.392,0.843,-107.544,75.562,95.703
-0.398,-1.308,0.779,-119.385,73.303,88.135
-0.341,-1.243,0.741,-129.700,70.313,79.102
-0.269,-1.173,0.696,-137.939,67.688,71.838
-0.217,-1.082,0.615,-144.287,65.796,70.313
-0.176,-0.960,0.526,-146.606,64.026,72.876
-0.134,-0.812,0.413,-143.555,61.890,75.623
-0.118,-0.667,0.308,-136.719,60.669,78.552
-0.105,-0.532,0.212,-124.695,61.523,80.200
-0.098,-0.394,0.141,-110.352,62.805,79.041
-0.076,-0.278,0.097,-96.619,62.256,74.524
-0.070,-0.171,0.066,-87.402,58.899,67.383
-0.063,-0.036,0.007,-82.520,53.711,57.617
-0.009,0.106,-0.076,-82.336,49.744,43.945
0.046,0.229,-0.179,-86.060,44.006,30.090
0.111,0.336,-0.279,-87.280,34.485,19.897
0.157,0.413,-0.339,-81.116,25.879,13.550
0.181,0.470,-0.374,-70.374,21.851,12.207
0.179,0.517,-0.394,-56.335,18.372,14.038
0.161,0.556,-0.385,-40.161,12.329,13.977
0.140,0.576,-0.350,-24.597,4.089,11.719
0.116,0.569,-0.304,-11.230,-4.395,8.240
0.098,0.550,-0.250,0.122,-11.780,3.357
0.105,0.512,-0.189,9.583,-18.494,-1.038
0.075,0.481,-0.128,16.357,-25.757,-3.601
0.026,0.474,-0.089,23.804,-30.640,-6.042
-0.006,0.462,-0.065,31.372,-32.227,-9.766
-0.017,0.436,-0.045,39.856,-34.973,-13.916
-0.024,0.398,-0.012,51.147,-40.283,-17.700
-0.042,0.354,0.006,62.561,-44.067,-20.081
-0.062,0.314,0.016,76.233,-47.729,-21.362
-0.118,0.256,0.033,91.187,-54.138,-23.560
-0.192,0.149,0.065,104.614,-59.753,-26.917
-0.250,0.005,0.133,118.713,-62.988,-31.921
-0.263,-0.156,0.242,133.423,-63.416,-40.527
-0.276,-0.362,0.366,142.639,-63.904,-50.049
-0.319,-0.595,0.505,146.057,-64.880,-57.434
-0.365,-0.858,0.665,149.414,-64.819,-62.927
-0.393,-1.151,0.870,150.818,-62.622,-67.078
-0.411,-1.434,1.077,149.292,-59.204,-68.787
-0.401,-1.681,1.286,142.761,-53.894,-69.580
-0.356,-1.880,1.448,130.493,-45.837,-67.444
-0.287,-2.033,1.594,114.441,-36.316,-58.350
-0.275,-2.151,1.671,103.516,-30.762,-46.631
-0.293,-2.221,1.692,97.107,-22.461,-35.706
-0.282,-2.222,1.670,85.266,-7.446,-22.461
-0.274,-2.195,1.600,70.618,5.859,-6.653
-0.282,-2.177,1.562,50.354,15.991,7.080
-0.269,-2.143,1.516,28.503,19.470,17.395
-0.231,-2.061,1.453,8.545,19.958,25.879
-0.192,-1.952,1.358,-11.414,22.278,35.706
-0.178,-1.819,1.247,-30.884,25.269,47.546
-0.173,-1.666,1.131,-44.250,27.893,58.105
-0.163,-1.523,1.029,-52.856,29.297,65.369

-0.163,-1.283,0.856,-54.810,27.161,64.636
-0.112,-1.077,0.708,-52.063,29.175,58.228
-0.112,-1.152,0.705,-50.415,28.198,43.640
-0.091,-1.025,0.661,-50.476,32.166,37.048
-0.009,-0.894,0.594,-46.692,40.344,42.542
0.011,-0.805,0.593,-42.908,43.762,43.274
0.029,-0.716,0.478,-32.593,44.128,44.189
0.104,-0.482,0.361,-9.033,36.865,36.194
-0.084,-0.664,0.398,25.757,18.127,4.944
0.178,-0.674,0.539,-8.911,15.930,12.146
0.272,-0.604,0.242,-0.366,27.466,37.598
-0.075,-0.642,0.135,-4.761,12.695,49.500
0.089,-0.470,0.660,-74.219,-3.723,58.044
0.103,-0.426,0.605,-69.031,14.221,61.951
0.100,-0.319,0.413,-39.368,35.400,56.458
0.059,-0.434,0.436,-39.246,36.621,45.776
0.032,-0.352,0.301,-32.227,30.212,39.429
0.024,-0.300,0.251,-33.936,19.592,33.020
0.000,-0.279,0.246,-34.363,10.681,24.597
0.064,-0.367,0.105,-21.362,5.859,12.390
0.116,-0.380,0.346,-14.832,-1.099,6.104
0.063,-0.433,0.325,0.488,6.348,5.859
0.011,-0.547,0.412,9.155,13.916,11.536
-0.026,-0.493,0.485,12.634,20.325,21.606
-0.024,-0.491,0.536,17.578,23.315,24.231
0.037,-0.484,0.579,17.273,19.226,21.606
0.045,-0.513,0.699,9.583,16.724,16.846
0.027,-0.584,0.707,3.418,19.287,11.414
0.015,-0.646,0.683,1.282,20.996,9.644
0.017,-0.634,0.665,-0.366,21.118,11.597
0.000,-0.697,0.554,-0.671,19.104,12.268
-0.018,-0.732,0.584,1.953,10.254,13.000
0.046,-0.689,0.656,2.136,2.747,13.428
0.064,-0.756,0.596,1.953,4.822,13.245
0.045,-0.816,0.677,0.122,6.714,15.991
0.111,-1.107,0.056,10.315,5.554,28.198
-0.108,-0.968,0.033,57.251,-39.795,55.847
0.006,-0.606,0.835,61.829,-105.896,79.407
0.047,-0.539,1.076,42.725,-100.708,67.444
0.045,-0.546,0.928,16.296,-58.228,43.091
0.069,-0.604,0.772,4.883,-24.292,18.921
0.101,-0.723,0.677,3.845,-7.568,0.244
0.092,-0.797,0.566,4.822,-0.916,-7.080
0.063,-0.810,0.566,9.521,-3.845,-7.080
0.055,-0.771,0.666,15.930,-11.169,-5.249
0.067,-0.730,0.780,16.541,-11.475,-4.883
0.058,-0.704,0.781,9.094,-1.770,-8.667
0.018,-0.729,0.676,-2.686,10.803,-15.381
-0.019,-0.779,0.560,-12.695,17.456,-23.315
0.064,-0.779,0.494,-16.541,13.855,-26.184
0.070,-0.765,0.446,-15.381,6.836,-24.719
0.046,-0.752,0.445,-11.475,-0.488,-21.729
0.069,-0.798,0.521,-3.601,-10.315,-16.907
0.090,-0.860,0.536,8.179,-16.357,-10.986
0.063,-0.778,0.676,12.085,-22.461,0.366
0.060,-0.798,0.664,11.108,-20.874,5.859
0.045,-0.811,0.668,9.521,-17.761,9.094
0.035,-0.783,0.736,12.024,-17.273,13.916
0.041,-0.718,0.815,11.169,-13.733,16.968
-0.105,-0.223,1.732,6.287,9.705,7.080
0.022,-0.785,0.672,-24.658,87.891,-33.020
0.028,-0.893,0.479,-40.710,106.689,-39.856
0.019,-0.905,0.438,-12.268,87.341,-30.701
0.064,-0.863,0.453,-4.517,66.284,-12.878
0.077,-0.817,0.504,4.272,46.875,3.113
0.099,-0.759,0.512,8.179,35.522,14.160
0.114,-0.747,0.469,8.362,28.870,17.761
0.120,-0.764,0.415,3.723,18.860,17.822
0.172,-0.655,0.370,-8.545,1.404,16.663
0.091,-0.787,0.451,-14.587,-21.606,8.667
0.077,-0.807,0.645,-10.559,-41.504,9.949
0.063,-0.748,0.770,-12.573,-45.288,14.771
0.086,-0.650,0.710,-15.198,-34.790,13.916
0.132,-0.613,0.679,-24.292,-21.423,9.094
0.142,-0.667,0.670,-20.813,-11.963,-0.732
0.124,-0.731,0.626,-18.250,-2.075,-7.568
0.100,-0.792,0.581,-14.282,3.967,-10.071
0.086,-0.823,0.560,-6.653,2.747,-8.667
0.103,-0.802,0.544,-2.014,0.366,-5.066
0.120,-0.739,0.576,1.953,-3.784,-2.014
0.087,-0.723,0.678,2.686,-7.996,-0.916
0.076,-0.773,0.754,-1.892,-6.348,-2.258
0.089,-0.783,0.753,-8.911,-0.549,-1.404
0.074,-0.769,0.673,-14.648,7.690,0.427
0.077,-0.746,0.585,-17.212,13.000,1.221
0.061,-0.758,0.581,-14.343,11.475,1.343
0.054,-0.776,0.585,-8.972,7.446,1.587
-0.000,-0.947,0.237,-1.038,2.563,5.615
0.112,-0.695,0.628,12.024,-19.897,19.775
0.056,-0.772,0.606,7.507,-26.245,25.024
0.113,-0.594,0.817,4.395,-18.738,27.222
0.056,-0.387,0.822,-3.723,-2.441,22.278
0.094,-0.587,0.690,-22.888,22.217,-1.099
0.079,-0.589,0.665,-39.795,33.386,-15.320
0.042,-0.747,0.569,-40.588,36.987,-26.550
0.088,-0.910,0.709,-30.518,30.518,-27.344
0.102,-0.846,0.801,-33.997,29.175,-16.113
0.106,-0.814,0.799,-50.354,38.757,-1.404
0.111,-0.750,0.796,-72.937,49.011,11.475
0.115,-0.722,0.730,-78.125,52.368,16.418
0.103,-0.672,0.726,-66.345,44.373,14.343
0.096,-0.648,0.806,-43.518,30.823,6.470
0.108,-0.634,0.640,-19.958,11.353,-4.272
0.106,-0.714,0.742,-30.518,1.709,-11.230
0.113,-0.736,0.742,-47.058,-10.681,-15.198
0.173,-0.611,0.860,-42.725,-20.386,-14.832
0.183,-0.608,0.765,-7.629,-41.687,-3.662
0.295,-0.377,0.633,21.179,-58.167,4.517
0.051,-0.595,0.752,40.039,-42.908,19.470
0.074,-0.666,0.742,10.132,-41.382,31.555
0.063,-0.629,0.684,-24.292,-41.199,20.325
0.077,-0.663,0.719,-38.025,-31.006,23.437
0.061,-0.693,0.737,-48.462,-31.616,25.452
0.048,-0.700,0.703,-59.265,-32.227,20.691
0.045,-0.690,0.681,-60.730,-30.334,17.273
0.033,-0.667,0.643,-52.307,-28.931,13.245
-0.012,-0.677,0.632,-53.040,-24.841,5.432
0.022,-0.641,0.630,-72.388,-16.174,-1.404
0.066,-0.632,0.706,-79.102,-7.263,-4.700

-0.409,-0.408,0.511,54.688,-173.035,-22.278
-0.345,-0.756,1.057,38.025,-85.815,50.537
-0.110,-0.235,1.036,-27.710,-27.832,113.525
-0.136,-0.073,1.130,-44.861,-24.231,108.704
-0.340,-0.369,1.036,-56.885,15.869,72.327
-0.251,-0.534,0.419,-80.017,68.726,51.575
-0.063,-0.607,0.442,-112.427,53.589,56.580
0.052,-0.469,0.960,-128.357,-14.832,108.154
-0.288,-0.053,0.951,-132.080,-32.043,149.658
-0.814,0.144,0.827,-106.079,-33.813,140.137
-0.543,0.035,0.834,-94.299,-31.433,73.303
-0.255,-0.455,0.530,-90.027,3.296,-11.353
-0.273,-0.556,0.411,-127.380,35.156,-88.562
-0.428,-0.344,0.782,-132.874,1.831,-90.210
-0.333,-0.343,0.674,-113.464,-12.085,-87.219
-0.258,-0.156,0.587,-108.398,-0.977,-86.792
-0.239,-0.106,0.476,-96.191,-1.587,-81.848
-0.225,-0.091,0.414,-69.458,-6.897,-66.406
-0.206,-0.047,0.478,-51.941,-14.893,-54.871
-0.107,-0.051,0.463,-60.242,-14.343,-53.589
-0.083,0.008,0.421,-79.163,-11.841,-59.875
0.004,0.055,0.292,-78.613,-21.545,-68.726
0.121,0.120,0.251,-70.679,-44.067,-82.886
0.201,0.141,0.284,-60.486,-65.308,-97.656
0.138,0.153,0.295,-43.396,-80.078,-101.624
0.087,0.016,0.214,-11.902,-85.693,-86.853
-0.164,0.052,0.323,12.817,-89.355,-62.195
-0.255,-0.094,0.396,39.490,-86.304,-39.612
-0.303,-0.097,0.607,56.274,-73.547,-11.108
-0.255,-0.078,0.778,67.322,-51.575,8.667
-0.271,-0.067,0.915,76.965,-32.288,16.418
-0.294,-0.060,1.034,85.754,-18.311,16.602
-0.336,-0.081,1.148,87.524,-4.395,13.611
-0.401,-0.095,1.273,85.327,6.775,13.550
-0.509,-0.080,1.413,81.238,10.193,16.235
-0.594,-0.108,1.505,76.111,8.240,17.334
-0.677,-0.156,1.598,66.162,4.944,18.738
-0.790,-0.203,1.673,57.373,-4.211,26.367
-0.871,-0.265,1.742,50.659,-19.836,31.921
-0.919,-0.291,1.804,45.776,-33.875,33.691
-0.913,-0.258,1.951,28.870,-30.273,33.020
-0.934,-0.363,1.833,9.705,-11.841,25.635
-0.946,-0.418,1.726,-2.747,-6.165,18.799
-0.934,-0.406,1.667,-11.169,-5.981,14.099
-0.890,-0.420,1.597,-19.348,-2.747,2.686
-0.804,-0.407,1.526,-26.733,-2.014,-8.362
-0.739,-0.377,1.459,-30.640,-4.944,-16.174
-0.689,-0.362,1.416,-34.729,-10.376,-21.729
-0.625,-0.312,1.422,-46.570,-15.869,-22.705
-0.601,-0.238,1.370,-55.725,-22.217,-16.602
-0.681,-0.137,1.382,-66.833,-29.541,-18.127
-0.726,-0.177,1.411,-68.604,-32.654,-25.146
-0.786,-0.245,1.465,-67.322,-29.846,-17.151
-0.877,-0.221,1.488,-67.078,-20.813,-10.681
-0.922,-0.219,1.447,-61.218,-15.442,-7.202
-0.963,-0.266,1.364,-57.678,-7.812,-10.742
-0.941,-0.318,1.274,-55.115,2.319,-11.597
-0.868,-0.336,1.263,-57.251,12.756,-8.179
-0.719,-0.296,1.299,-67.322,25.269,-6.165
-0.607,-0.259,1.335,-82.947,37.476,-8.057
-0.530,-0.238,1.321,-93.445,45.654,-8.789
-0.474,-0.251,1.250,-97.961,52.551,-6.653
-0.427,-0.283,1.141,-98.083,57.129,-2.869
-0.444,-0.316,1.020,-97.900,55.115,-1.648
-0.386,-0.289,1.009,-100.281,51.514,-4.150
-0.306,-0.239,0.977,-103.760,56.030,-7.751
-0.260,-0.234,0.938,-102.539,62.561,-7.935
-0.223,-0.254,0.885,-101.074,69.275,-5.920
-0.176,-0.218,0.863,-104.370,80.505,-5.005
-0.126,-0.186,0.819,-106.323,80.505,-4.456
-0.142,-0.148,0.789,-102.173,69.519,-7.080
-0.111,-0.113,0.777,-98.877,59.448,-11.658
-0.056,-0.085,0.716,-98.633,51.575,-14.038
-0.052,-0.009,0.695,-98.633,39.917,-13.123
-0.102,0.024,0.618,-95.337,28.015,-9.644
-0.122,0.030,0.533,-93.567,17.273,-4.761
-0.155,0.018,0.453,-94.849,3.540,0.793
-0.243,0.033,0.378,-94.421,-9.094,6.042
-0.254,0.068,0.395,-97.778,-19.104,6.775
-0.232,0.104,0.417,-106.750,-23.437,1.343
-0.182,0.169,0.398,-110.901,-21.545,-3.052
-0.166,0.194,0.315,-109.192,-17.944,-6.226
-0.119,0.251,0.329,-103.271,-17.944,-10.620
-0.062,0.323,0.396,-97.717,-18.250,-15.442
-0.057,0.372,0.422,-91.064,-17.395,-15.991
-0.089,0.394,0.416,-80.627,-18.433,-11.047
-0.104,0.391,0.396,-71.899,-19.348,-5.798
-0.128,0.395,0.384,-68.359,-21.423,-2.014
-0.182,0.382,0.308,-62.988,-21.667,3.296
-0.234,0.372,0.258,-53.772,-16.846,5.371
-0.214,0.389,0.298,-48.157,-10.010,1.709
-0.208,0.421,0.324,-44.373,-1.587,-0.854
-0.206,0.445,0.298,-40.039,5.737,-1.038
-0.219,0.481,0.259,-32.593,6.958,0.183
-0.241,0.501,0.218,-23.987,5.066,1.343
-0.256,0.528,0.176,-14.587,2.502,2.380
-0.260,0.544,0.147,-6.042,1.221,1.831
-0.253,0.580,0.148,3.357,0.183,-0.183
-0.249,0.607,0.171,13.367,-1.221,-2.991
-0.231,0.606,0.183,22.583,-2.014,-4.822
-0.237,0.588,0.172,30.212,-2.563,-3.845
-0.256,0.578,0.164,38.330,-2.625,-1.099
-0.255,0.572,0.198,46.143,-2.319,-0.122
-0.231,0.562,0.249,51.941,0.000,0.916
-0.205,0.535,0.275,56.335,5.554,3.784
-0.176,0.487,0.289,61.340,9.766,7.019
-0.129,0.455,0.318,66.650,10.925,10.620
-0.097,0.398,0.336,71.167,12.024,15.076
-0.099,0.330,0.340,75.562,14.709,19.470
-0.075,0.281,0.393,79.224,15.625,23.560
-0.046,0.251,0.451,79.834,15.503,25.024
-0.008,0.222,0.500,79.773,11.658,24.719
0.023,0.201,0.516,81.360,3.723,25.513
-0.011,0.193,0.494,85.327,-5.188,27.771
-0.089,0.186,0.486,92.407,-14.587,32.776
-0.172,0.139,0.492,100.769,-19.226,39.307
-0.230,0.092,0.547,106.262,-17.395,43.762
-0.226,0.056,0.630,110.046,-12.146,46.814
-0.246,0.007,0.730,114.868,-9.094,47.852

-0.653,-0.265,1.189,112.061,-44.617,15.869
-0.686,-0.264,1.175,107.849,-42.847,11.780
-0.687,-0.251,1.206,102.173,-43.152,11.047
-0.687,-0.239,1.218,94.788,-41.992,14.954
-0.730,-0.262,1.254,89.722,-40.466,21.240
-0.774,-0.349,1.369,84.900,-35.706,28.137
-0.806,-0.433,1.513,74.280,-19.897,34.668
-0.861,-0.496,1.656,59.448,-1.404,37.170
-0.806,-0.518,1.725,42.358,7.507,32.776
-0.820,-0.517,1.840,31.616,0.916,23.010
-0.767,-0.492,1.799,25.208,-7.202,6.409
-0.728,-0.471,1.725,16.113,-9.033,-4.883
-0.674,-0.433,1.654,7.507,-10.254,-13.245
-0.632,-0.380,1.590,-3.418,-10.254,-14.343
-0.601,-0.343,1.510,-10.681,-14.465,-13.306
-0.602,-0.347,1.430,-16.724,-23.315,-13.489
-0.660,-0.366,1.387,-25.085,-34.607,-17.578
-0.684,-0.324,1.374,-37.537,-45.959,-27.222
-0.542,-0.377,1.322,-35.522,-64.697,-37.659
-0.721,-0.336,1.457,-56.396,-68.970,-48.035
-0.789,-0.346,1.401,-66.284,-55.237,-46.021
-0.684,-0.365,1.316,-62.500,-44.128,-31.555
-0.744,-0.484,1.348,-53.101,-40.283,-17.822
-0.846,-0.478,1.358,-49.927,-34.119,-7.568
-0.865,-0.569,1.327,-59.082,-18.433,-6.042
-0.816,-0.626,1.322,-81.360,1.099,-7.812
-0.759,-0.651,1.254,-108.765,15.808,-12.756
-0.818,-0.692,1.324,-142.212,23.437,-22.400
-0.797,-0.658,1.328,-163.879,28.137,-27.832
-0.772,-0.596,1.288,-170.410,33.752,-26.917
-0.699,-0.515,1.251,-173.889,37.720,-30.212
-0.647,-0.413,1.216,-179.993,39.185,-41.870
-0.579,-0.291,1.160,-182.922,36.499,-54.199
-0.522,-0.204,1.081,-179.749,32.959,-62.073
-0.477,-0.165,1.018,-172.729,31.250,-66.711
-0.452,-0.122,0.927,-164.673,30.945,-66.833
-0.435,-0.054,0.808,-156.738,34.119,-65.430
-0.419,0.024,0.744,-146.667,38.635,-60.608
-0.429,0.061,0.703,-133.789,39.001,-53.101
-0.414,0.048,0.681,-123.596,36.377,-47.668
-0.392,0.011,0.688,-119.568,33.447,-43.396
-0.365,-0.001,0.707,-119.080,30.945,-36.621
-0.351,-0.023,0.728,-119.263,31.311,-26.184
-0.349,-0.054,0.747,-123.230,37.537,-15.015
-0.330,-0.097,0.710,-131.348,41.321,-10.010
-0.319,-0.107,0.651,-141.724,36.621,-14.709
-0.277,-0.025,0.624,-154.907,29.114,-22.522
-0.219,0.038,0.562,-168.884,20.569,-32.166
-0.178,0.103,0.511,-175.171,11.108,-41.138
-0.182,0.145,0.432,-173.462,2.197,-43.274
-0.173,0.204,0.347,-168.884,-3.601,-43.518
-0.158,0.260,0.288,-165.649,-10.376,-44.983
-0.160,0.341,0.219,-161.560,-12.878,-44.495
-0.127,0.431,0.169,-157.715,-12.878,-43.030
-0.105,0.515,0.128,-151.733,-13.672,-41.260
-0.109,0.567,0.110,-142.761,-13.306,-37.842
-0.118,0.598,0.106,-133.484,-10.620,-32.776
-0.125,0.629,0.105,-125.854,-8.667,-27.527
-0.123,0.674,0.091,-119.080,-8.179,-22.400
-0.123,0.715,0.055,-112.976,-7.019,-17.334
-0.114,0.763,0.013,-106.506,-5.310,-13.184
-0.108,0.824,-0.049,-98.450,-2.625,-8.728
-0.146,0.863,-0.122,-86.304,-1.770,-5.005
-0.178,0.893,-0.118,-72.754,-5.554,-3.174
-0.198,0.913,-0.062,-64.941,-10.010,-5.554
-0.211,0.941,-0.041,-58.838,-11.047,-8.850
-0.232,0.964,-0.053,-51.758,-11.536,-8.850
-0.274,0.977,-0.072,-41.626,-13.062,-7.263
-0.313,0.992,-0.071,-31.128,-13.733,-6.226
-0.339,1.014,-0.071,-22.644,-11.414,-5.737
-0.381,1.021,-0.075,-14.221,-6.592,-4.517
-0.405,1.020,-0.077,-5.859,-0.244,-3.479
-0.403,1.030,-0.063,1.404,6.714,-4.272
-0.412,1.049,-0.041,6.226,14.832,-4.822
-0.419,1.064,-0.037,9.827,22.278,-4.272
-0.406,1.072,-0.037,13.794,26.245,-4.272
-0.385,1.072,-0.037,18.494,28.198,-4.272
-0.352,1.073,-0.036,23.682,31.860,-2.991
-0.328,1.072,-0.045,29.419,36.743,0.488
-0.311,1.058,-0.061,36.072,39.124,3.784
-0.284,1.046,-0.040,41.199,36.316,3.052
-0.254,1.053,0.005,44.678,35.583,1.099
-0.253,1.018,-0.010,46.875,41.199,1.892
-0.209,0.965,-0.039,53.223,41.809,2.686
-0.190,0.921,-0.033,60.974,35.583,5.188
-0.173,0.877,-0.044,68.298,30.640,10.132
-0.153,0.814,-0.052,73.792,25.391,15.320
-0.139,0.767,-0.042,77.698,19.226,20.020
-0.119,0.740,-0.032,81.970,13.611,22.522
-0.089,0.699,-0.011,87.585,7.935,21.301
-0.051,0.672,-0.000,96.680,1.831,18.677
-0.057,0.641,0.006,109.558,-5.127,18.982
-0.053,0.592,0.066,124.573,-14.465,21.729
-0.065,0.514,0.144,136.597,-18.005,26.062
-0.077,0.451,0.209,142.639,-15.137,30.701
-0.090,0.416,0.249,146.301,-11.169,34.912
-0.097,0.376,0.263,151.001,-8.850,37.292
-0.113,0.297,0.287,155.151,-10.803,38.330
-0.148,0.215,0.339,155.701,-17.395,39.490
-0.188,0.156,0.407,154.114,-21.729,42.419
-0.222,0.125,0.491,152.771,-18.494,48.645
-0.272,0.090,0.576,152.832,-9.338,54.688
-0.318,0.036,0.653,154.907,-1.160,58.228
-0.380,-0.046,0.674,157.288,3.540,58.838
-0.408,-0.076,0.729,157.471,9.155,53.345
-0.420,-0.076,0.791,154.541,18.616,43.274
-0.391,-0.096,0.887,153.259,22.156,36.072
-0.382,-0.157,1.011,152.466,22.156,35.217
-0.388,-0.197,1.139,146.179,25.208,40.588
-0.381,-0.224,1.246,137.024,31.189,46.448
-0.282,-0.262,1.235,125.305,35.217,52.490
-0.357,-0.322,1.349,125.366,21.545,55.054
-0.449,-0.288,1.417,136.230,-1.160,46.631
-0.457,-0.256,1.424,131.042,-3.418,43.457
-0.505,-0.202,1.457,126.343,-11.353,28.259
-0.544,-0.178,1.385,119.019,-16.174,17.334
-0.547,-0.216,1.316,117.554,-22.766,5.371
-0.568,-0.264,1.335,115.479,-25.085,-0.610
-0.560,-0.345,1.387,108.276,-16.785,4.944

-0.554,-0.477,1.679,85.449,19.165,36.926
-0.591,-0.512,1.831,69.092,31.250,47.546
-0.610,-0.517,1.917,49.561,34.424,51.086
-0.626,-0.480,1.998,32.410,23.621,45.227
-0.635,-0.429,1.943,15.320,10.620,30.273
-0.632,-0.372,1.881,3.906,-5.066,12.817
-0.636,-0.297,1.831,-5.249,-18.799,-2.808
-0.671,-0.234,1.788,-13.367,-24.719,-11.414
-0.708,-0.207,1.778,-21.362,-24.170,-11.902
-0.731,-0.176,1.780,-30.029,-18.433,-6.592
-0.748,-0.175,1.766,-39.246,-10.742,-1.221
-0.756,-0.219,1.758,-46.326,-5.737,0.549
-0.753,-0.263,1.759,-52.246,-3.479,-0.610
-0.727,-0.290,1.743,-62.744,-2.075,-4.089
-0.679,-0.306,1.704,-75.317,-4.456,-8.484
-0.623,-0.320,1.637,-85.022,-11.414,-12.024
-0.587,-0.329,1.590,-90.454,-18.066,-14.282
-0.556,-0.346,1.544,-95.154,-16.907,-15.625
-0.510,-0.354,1.498,-102.783,-9.094,-16.174
-0.479,-0.340,1.463,-111.877,-0.427,-15.686
-0.459,-0.309,1.415,-120.056,5.005,-13.672
-0.443,-0.290,1.351,-126.038,8.240,-11.780
-0.413,-0.293,1.273,-129.761,11.292,-11.841
-0.378,-0.265,1.193,-133.911,15.625,-12.146
-0.349,-0.233,1.134,-140.198,16.602,-12.817
-0.324,-0.206,1.062,-147.278,15.808,-14.893
-0.315,-0.182,0.942,-150.085,12.939,-16.907
-0.325,-0.129,0.809,-147.339,5.310,-18.311
-0.310,-0.056,0.722,-144.104,-3.540,-24.170
-0.269,0.017,0.658,-143.372,-10.742,-33.630
-0.234,0.106,0.581,-141.235,-16.418,-39.368
-0.195,0.175,0.498,-137.451,-22.095,-39.978
-0.189,0.221,0.399,-130.920,-30.579,-37.354
-0.225,0.272,0.344,-123.108,-41.138,-30.518
-0.230,0.328,0.318,-120.911,-46.082,-24.475
-0.259,0.379,0.294,-122.131,-47.180,-23.743
-0.294,0.353,0.288,-121.765,-48.889,-24.109
-0.285,0.350,0.292,-123.535,-50.293,-21.301
-0.282,0.390,0.286,-128.540,-50.049,-18.005
-0.263,0.435,0.252,-131.836,-45.166,-15.564
-0.266,0.454,0.210,-132.935,-36.072,-13.306
-0.261,0.456,0.215,-131.592,-31.372,-11.719
-0.272,0.479,0.226,-128.845,-28.992,-10.681
-0.274,0.481,0.221,-126.099,-25.818,-10.925
-0.273,0.472,0.215,-126.343,-24.414,-13.855
-0.301,0.457,0.203,-129.333,-28.015,-15.869
-0.312,0.476,0.201,-134.277,-35.889,-14.771
-0.329,0.511,0.176,-134.888,-42.053,-15.991
-0.332,0.543,0.126,-129.028,-44.312,-20.569
-0.312,0.580,0.056,-119.568,-43.762,-25.696
-0.298,0.615,-0.010,-106.995,-40.039,-29.358
-0.277,0.659,-0.061,-92.163,-33.203,-30.396
-0.278,0.703,-0.089,-75.989,-25.024,-28.442
-0.261,0.753,-0.080,-60.181,-15.991,-24.719
-0.236,0.785,-0.095,-45.776,-5.432,-22.705
-0.220,0.821,-0.116,-32.837,1.160,-20.813
-0.207,0.867,-0.138,-19.775,1.282,-19.043
-0.203,0.886,-0.172,-7.935,-0.122,-17.517
-0.192,0.924,-0.204,2.502,0.122,-15.442
-0.185,0.969,-0.214,12.817,1.831,-13.855
-0.187,0.995,-0.223,24.048,3.540,-11.597
-0.197,1.010,-0.219,35.706,3.723,-8.423
-0.193,1.011,-0.208,43.518,5.005,-4.639
-0.214,0.998,-0.210,49.072,8.728,2.136
-0.243,0.988,-0.191,55.664,13.367,10.925
-0.270,0.968,-0.171,61.279,18.677,17.578
-0.280,0.945,-0.140,66.406,22.766,21.606
-0.300,0.915,-0.111,71.960,24.841,23.621
-0.319,0.872,-0.097,77.393,25.635,24.780
-0.326,0.834,-0.060,82.336,24.780,26.123
-0.331,0.796,-0.017,85.815,25.757,26.855
-0.320,0.742,0.019,87.708,27.649,25.574
-0.298,0.684,0.052,87.769,29.175,22.827
-0.268,0.656,0.094,87.402,28.564,19.592
-0.225,0.620,0.126,89.539,24.841,17.334
-0.171,0.587,0.157,92.529,19.714,16.296
-0.139,0.543,0.175,96.497,16.785,17.517
-0.127,0.491,0.189,101.501,17.151,21.729
-0.127,0.440,0.210,108.032,19.531,28.442
-0.163,0.389,0.247,115.051,22.400,35.645
-0.180,0.352,0.327,121.521,25.024,41.321
-0.197,0.296,0.398,125.427,30.823,43.091
-0.194,0.250,0.462,127.197,35.828,43.884
-0.198,0.209,0.522,130.127,34.668,46.814
-0.236,0.171,0.576,134.338,28.809,51.941
-0.290,0.150,0.617,136.108,22.217,55.176
-0.363,0.118,0.629,135.071,17.883,55.481
-0.431,0.070,0.647,135.315,16.235,55.542
-0.507,0.008,0.698,137.146,20.203,53.589
-0.537,-0.029,0.806,140.015,26.245,51.392
-0.523,-0.029,0.958,141.418,33.508,48.584
-0.512,-0.011,1.097,139.587,40.894,46.692
-0.492,0.017,1.202,137.878,44.250,47.241
-0.467,0.047,1.268,135.071,41.931,46.082
-0.394,0.076,1.220,130.066,35.645,45.959
-0.442,0.057,1.310,131.226,16.479,44.800
-0.529,-0.000,1.178,142.517,-6.226,35.828
-0.551,-0.097,1.147,144.409,-13.794,38.818
-0.590,-0.168,1.225,147.583,-21.240,32.288
-0.600,-0.194,1.299,143.311,-17.212,29.602
-0.584,-0.252,1.369,137.695,-10.681,23.987
-0.573,-0.357,1.446,132.202,-5.859,16.174
-0.558,-0.427,1.513,121.399,0.000,14.709
-0.559,-0.477,1.541,105.591,6.287,22.034
-0.557,-0.531,1.591,90.088,9.766,32.654
-0.556,-0.555,1.662,72.571,12.085,41.809
-0.563,-0.572,1.710,55.725,12.085,48.035
-0.596,-0.589,1.763,43.579,6.775,49.805
-0.637,-0.605,1.824,32.593,0.366,47.546
-0.669,-0.619,1.885,20.142,-3.235,42.114
-0.711,-0.644,1.915,9.705,-5.188,36.072
-0.785,-0.679,1.914,2.258,-7.141,29.175
-0.846,-0.683,1.939,-8.728,-8.911,19.409
-0.887,-0.670,1.953,-25.208,-6.592,7.690
-0.889,-0.656,1.938,-40.771,-2.075,-2.197
-0.870,-0.630,1.900,-57.739,0.183,-10.315
-0.841,-0.587,1.854,-75.500,0.610,-16.235
-0.800,-0.573,1.770,-90.576,2.197,-22.095
-0.758,-0.550,1.681,-101.929,4.272,-28.015

-0.638,-0.474,1.544,-119.873,3.113,-41.565
-0.594,-0.425,1.460,-124.390,-0.305,-47.119
-0.551,-0.371,1.359,-126.404,-2.625,-52.307
-0.529,-0.328,1.244,-127.197,-5.005,-58.594
-0.493,-0.284,1.163,-127.075,-7.141,-64.880
-0.435,-0.254,1.117,-129.150,-6.042,-70.068
-0.390,-0.238,1.068,-133.850,-2.747,-72.693
-0.353,-0.190,1.014,-139.954,0.244,-71.350
-0.333,-0.140,0.916,-146.545,3.662,-66.956
-0.307,-0.059,0.810,-151.611,4.822,-60.669
-0.277,0.022,0.723,-155.457,1.282,-58.105
-0.256,0.056,0.619,-156.738,-5.676,-58.350
-0.277,0.088,0.516,-155.640,-15.808,-56.824
-0.270,0.134,0.464,-155.396,-26.428,-56.763
-0.245,0.201,0.425,-158.508,-33.020,-59.143
-0.222,0.263,0.375,-162.354,-37.476,-59.082
-0.216,0.312,0.302,-162.170,-39.246,-56.458
-0.200,0.334,0.247,-160.461,-37.842,-53.467
-0.181,0.369,0.228,-159.302,-33.508,-49.194
-0.159,0.424,0.222,-158.203,-26.917,-43.274
-0.143,0.468,0.206,-156.433,-20.691,-36.560
-0.139,0.484,0.163,-152.283,-16.174,-29.480
-0.144,0.497,0.117,-146.423,-12.573,-23.926
-0.155,0.509,0.081,-139.343,-10.071,-22.949
-0.145,0.536,0.070,-131.470,-9.216,-25.024
-0.140,0.572,0.064,-124.084,-7.812,-26.855
-0.139,0.605,0.062,-117.126,-5.615,-27.710
-0.134,0.632,0.052,-110.474,-3.418,-26.550
-0.134,0.654,0.009,-102.539,-2.808,-23.254
-0.172,0.680,-0.022,-90.759,-5.554,-18.860
-0.194,0.687,-0.038,-78.308,-5.859,-17.090
-0.200,0.710,-0.049,-68.298,-1.099,-17.456
-0.205,0.746,-0.041,-60.181,5.432,-16.602
-0.198,0.787,-0.042,-52.124,10.376,-14.709
-0.187,0.822,-0.062,-42.786,10.864,-13.000
-0.209,0.833,-0.105,-32.166,7.751,-12.085
-0.220,0.855,-0.143,-21.362,3.784,-11.902
-0.208,0.912,-0.163,-13.489,1.221,-12.573
-0.191,0.980,-0.190,-6.287,-1.526,-13.184
-0.189,1.009,-0.231,3.357,-4.944,-12.390
-0.188,1.013,-0.266,15.686,-7.507,-10.254
-0.183,1.013,-0.266,26.611,-7.568,-7.874
-0.181,1.004,-0.245,33.325,-4.211,-4.639
-0.207,0.972,-0.236,41.016,-0.183,0.610
-0.230,0.936,-0.219,49.316,3.601,6.042
-0.244,0.905,-0.187,56.274,7.935,8.606
-0.252,0.876,-0.157,61.768,11.780,10.559
-0.254,0.842,-0.133,65.918,14.648,12.878
-0.241,0.806,-0.111,69.702,17.883,14.771
-0.210,0.772,-0.094,73.608,19.897,16.846
-0.200,0.738,-0.082,79.102,21.179,19.165
-0.194,0.687,-0.070,85.144,21.851,21.790
-0.182,0.633,-0.034,89.294,22.156,22.339
-0.150,0.597,0.027,91.248,23.376,20.142
-0.115,0.552,0.066,94.299,24.780,18.127
-0.081,0.498,0.052,103.149,22.522,18.005
-0.072,0.455,0.078,117.126,15.015,19.592
-0.056,0.414,0.157,128.601,8.850,22.461
-0.045,0.377,0.245,135.376,9.399,26.062
-0.052,0.359,0.336,139.099,12.756,32.043
-0.081,0.333,0.421,144.165,14.587,40.710
-0.131,0.288,0.492,149.292,14.465,49.255
-0.199,0.221,0.570,151.978,13.489,55.603
-0.257,0.146,0.661,151.245,15.320,59.570
-0.318,0.065,0.748,149.658,20.447,62.805
-0.382,0.015,0.855,150.024,23.621,64.575
-0.436,0.000,0.978,150.269,23.560,63.965
-0.493,0.002,1.079,149.597,19.897,61.646
-0.537,-0.009,1.149,149.353,12.390,57.983
-0.552,-0.009,1.220,147.522,5.249,51.575
-0.557,-0.031,1.296,142.822,1.831,45.349
-0.438,-0.008,1.270,135.864,5.493,46.021
-0.519,-0.188,1.410,142.395,-0.977,45.532
-0.538,-0.208,1.405,141.541,1.892,50.415
-0.547,-0.260,1.464,139.343,4.578,50.964
-0.568,-0.244,1.510,133.362,0.488,44.495
-0.558,-0.222,1.496,126.648,-4.578,36.682
-0.585,-0.251,1.475,123.962,-17.151,23.193
-0.621,-0.264,1.429,118.774,-27.649,15.686
-0.654,-0.275,1.355,109.985,-31.250,15.564
-0.700,-0.328,1.283,100.403,-30.151,20.813
-0.724,-0.375,1.317,92.712,-22.766,27.527
-0.725,-0.394,1.414,83.435,-8.423,31.616
-0.737,-0.403,1.518,73.181,4.883,33.936
-0.753,-0.436,1.628,65.369,9.521,35.950
-0.784,-0.468,1.746,55.420,11.658,35.828
-0.813,-0.460,1.844,40.588,13.428,34.058
-0.856,-0.450,1.900,24.658,13.184,28.809
-0.894,-0.459,1.941,10.681,8.667,21.606
-0.927,-0.513,1.942,-1.831,4.395,13.855
-0.932,-0.558,1.951,-15.930,2.747,5.920
-0.906,-0.545,1.968,-34.058,3.235,-1.465
-0.859,-0.521,1.942,-51.880,5.249,-8.484
-0.800,-0.497,1.960,-64.392,4.700,-15.625
-0.731,-0.437,1.883,-73.914,4.944,-22.156
-0.665,-0.379,1.867,-83.252,4.272,-28.503
-0.597,-0.317,1.804,-91.553,5.127,-32.715
-0.537,-0.254,1.754,-100.220,4.456,-35.095
-0.496,-0.224,1.642,-105.591,1.404,-36.499
-0.485,-0.215,1.544,-107.727,-4.028,-35.950
-0.455,-0.194,1.447,-108.398,-7.263,-35.950
-0.451,-0.176,1.338,-108.215,-6.531,-38.147
-0.449,-0.158,1.236,-106.018,-6.775,-39.490
-0.432,-0.115,1.173,-105.469,-8.728,-38.696
-0.394,-0.058,1.095,-106.384,-6.958,-40.039
-0.390,-0.047,0.947,-103.210,-4.761,-41.626
-0.394,-0.015,0.837,-97.473,-7.080,-39.917
-0.396,0.018,0.782,-95.703,-11.047,-38.330
-0.357,0.066,0.719,-99.670,-11.353,-39.612
-0.326,0.097,0.655,-104.858,-14.343,-43.518
-0.299,0.111,0.586,-109.009,-22.522,-44.617
-0.276,0.133,0.535,-114.075,-34.302,-42.053
-0.265,0.154,0.481,-119.812,-44.861,-39.490
-0.261,0.161,0.405,-124.939,-49.683,-36.377
-0.255,0.164,0.342,-127.869,-50.232,-33.386
-0.235,0.183,0.304,-129.700,-48.035,-32.288
-0.218,0.207,0.260,-129.333,-44.373,-32.654
-0.210,0.215,0.216,-126.526,-40.466,-32.532
-0.207,0.219,0.183,-123.108,-35.889,-31.494

-0.954,-0.255,1.368,151.611,-39.063,89.539
-1.115,-0.386,1.396,150.146,-44.739,89.478
-1.182,-0.457,1.445,143.616,-47.729,73.242
-1.191,-0.503,1.483,129.883,-41.016,45.959
-1.173,-0.494,1.510,114.929,-34.668,20.569
-1.123,-0.478,1.628,102.173,-34.851,3.357
-1.073,-0.489,1.722,88.562,-33.752,-2.319
-0.999,-0.503,1.773,68.909,-26.611,5.859
-0.989,-0.500,1.823,50.842,-19.958,20.630
-0.984,-0.498,1.815,35.461,-9.033,33.569
-0.978,-0.542,1.785,21.729,1.160,40.649
-0.968,-0.576,1.765,8.728,7.385,41.626
-0.967,-0.602,1.739,-3.906,10.437,36.987
-0.998,-0.643,1.701,-14.832,11.169,27.466
-0.988,-0.688,1.698,-25.635,12.207,14.709
-0.970,-0.700,1.713,-43.884,14.954,2.563
-0.945,-0.687,1.714,-68.542,15.686,-5.310
-0.907,-0.673,1.689,-93.018,15.991,-10.681
-0.853,-0.697,1.648,-112.976,16.418,-14.526
-0.801,-0.689,1.641,-136.353,15.930,-15.869
-0.756,-0.641,1.658,-157.776,14.954,-17.029
-0.680,-0.610,1.660,-176.514,13.367,-20.935
-0.605,-0.574,1.679,-196.594,9.644,-27.100
-0.568,-0.488,1.666,-214.355,4.822,-32.166
-0.575,-0.510,1.546,-220.764,-0.427,-36.926
-0.565,-0.588,1.431,-220.520,-7.935,-42.603
-0.567,-0.599,1.349,-221.985,-12.756,-49.866
-0.549,-0.522,1.263,-223.755,-14.160,-57.434
-0.509,-0.404,1.133,-222.107,-16.052,-66.833
-0.467,-0.305,0.979,-214.905,-21.790,-77.209
-0.441,-0.205,0.842,-203.064,-33.142,-84.045
-0.432,-0.109,0.757,-189.392,-47.119,-87.952
-0.415,-0.038,0.680,-179.993,-55.847,-91.248
-0.389,0.035,0.597,-177.429,-57.861,-93.323
-0.372,0.085,0.512,-178.406,-56.396,-91.309
-0.372,0.111,0.433,-180.237,-52.368,-85.205
-0.375,0.121,0.354,-183.350,-46.570,-78.674
-0.351,0.155,0.296,-186.340,-41.870,-76.538
-0.331,0.189,0.269,-188.965,-37.537,-78.613
-0.298,0.221,0.253,-194.336,-35.339,-81.360
-0.276,0.257,0.221,-201.538,-33.020,-86.121
-0.237,0.297,0.166,-204.102,-30.701,-86.914
-0.203,0.332,0.124,-202.698,-32.898,-83.801
-0.186,0.372,0.089,-199.402,-36.133,-79.346
-0.155,0.414,0.039,-194.153,-35.339,-74.158
-0.126,0.455,-0.035,-185.486,-30.945,-68.298
-0.093,0.502,-0.108,-174.133,-26.978,-62.927
-0.083,0.537,-0.191,-159.302,-21.667,-58.411
-0.078,0.559,-0.266,-141.541,-13.855,-53.772
-0.081,0.575,-0.290,-123.413,-6.531,-48.706
-0.084,0.631,-0.276,-106.506,1.038,-42.358
-0.077,0.677,-0.271,-90.881,11.353,-35.767
-0.076,0.715,-0.252,-76.233,19.165,-30.151
-0.070,0.734,-0.239,-65.491,21.790,-26.001
-0.089,0.764,-0.224,-59.021,19.714,-22.583
-0.106,0.790,-0.243,-53.345,14.221,-21.179
-0.125,0.809,-0.281,-47.058,6.042,-21.240
-0.140,0.825,-0.315,-39.856,-1.831,-22.461
-0.155,0.842,-0.345,-32.043,-9.216,-23.376
-0.158,0.881,-0.376,-23.376,-15.625,-24.292
-0.162,0.926,-0.386,-16.113,-20.508,-25.452
-0.164,0.972,-0.430,-7.935,-21.057,-22.827
-0.171,0.997,-0.482,1.587,-17.151,-18.860
-0.175,1.025,-0.507,11.414,-11.902,-14.282
-0.171,1.025,-0.506,19.287,-6.165,-9.583
-0.162,1.028,-0.498,22.827,-0.488,-4.089
-0.159,1.027,-0.491,24.414,5.188,1.343
-0.163,1.023,-0.502,28.931,9.949,8.179
-0.170,1.007,-0.495,36.804,13.245,13.489
-0.179,0.997,-0.470,44.861,15.076,16.418
-0.182,1.001,-0.442,51.941,16.663,18.311
-0.182,0.993,-0.420,58.472,16.724,19.897
-0.181,0.971,-0.402,65.063,14.221,20.508
-0.165,0.953,-0.399,72.815,10.559,21.912
-0.166,0.911,-0.422,82.886,7.751,25.574
-0.171,0.854,-0.425,96.252,5.493,30.090
-0.185,0.798,-0.407,109.863,5.371,34.607
-0.190,0.768,-0.362,121.277,10.132,39.124
-0.179,0.739,-0.295,129.944,21.240,42.053
-0.141,0.687,-0.238,137.390,35.156,43.823
-0.122,0.636,-0.158,143.738,45.593,46.997
-0.120,0.601,-0.066,149.597,49.683,52.429
-0.135,0.569,0.028,155.762,48.523,58.777
-0.165,0.507,0.099,161.682,45.837,63.293
-0.196,0.406,0.128,167.603,44.067,66.528
-0.258,0.302,0.162,173.950,42.969,69.336
-0.298,0.228,0.222,179.199,43.701,69.092
-0.298,0.180,0.337,181.274,47.058,62.622
-0.266,0.131,0.471,182.922,51.147,54.321
-0.246,0.102,0.618,186.768,52.917,50.781
-0.271,0.078,0.767,193.176,51.270,54.810
-0.299,0.036,0.894,196.655,49.011,61.890
-0.331,-0.010,0.971,194.519,50.110,67.017
-0.365,-0.049,0.980,188.965,49.744,69.580
-0.388,-0.068,0.964,183.167,43.274,66.101
-0.403,-0.070,0.967,179.565,31.555,54.993
-0.389,-0.068,0.990,180.298,18.188,41.748
-0.366,-0.067,1.013,183.777,5.859,32.654
-0.460,-0.142,1.028,188.599,-5.005,30.518
-0.427,-0.122,1.066,188.904,-13.611,37.354
-0.520,-0.235,1.117,204.102,-28.870,34.973
-0.527,-0.341,1.070,201.599,-19.165,48.767
-0.618,-0.535,1.121,209.351,-16.968,57.739
-0.682,-0.722,1.255,216.919,-12.939,68.359
-0.706,-0.854,1.529,212.463,2.686,73.425
-0.695,-0.910,1.805,192.383,20.874,67.444
-0.725,-0.971,1.999,164.124,34.546,54.016
-0.731,-1.043,2.134,135.986,33.508,41.077
-0.741,-1.057,2.215,109.436,22.949,31.433
-0.766,-0.972,2.191,80.200,10.498,27.649
-0.757,-0.793,2.152,52.490,-3.967,22.339
-0.760,-0.651,2.006,33.508,-16.968,11.597
-0.787,-0.529,1.833,23.132,-28.015,3.357
-0.816,-0.404,1.720,13.062,-34.607,1.160
-0.854,-0.323,1.653,0.366,-31.189,3.784
-0.880,-0.305,1.613,-13.428,-19.592,9.521
-0.902,-0.348,1.594,-24.536,-6.775,16.052
-0.907,-0.425,1.601,-31.677,4.517,18.433
-0.879,-0.495,1.613,-36.011,15.625,15.625

-0.721,-0.682,1.702,-44.495,32.227,-3.967
-0.609,-0.706,1.726,-59.082,36.987,-11.963
-0.511,-0.698,1.697,-76.538,36.316,-17.639
-0.433,-0.719,1.623,-89.661,33.691,-22.949
-0.339,-0.750,1.538,-99.365,29.663,-27.344
-0.289,-0.751,1.479,-111.755,23.804,-29.114
-0.268,-0.688,1.425,-127.930,18.677,-29.297
-0.260,-0.619,1.323,-142.273,14.221,-31.250
-0.271,-0.581,1.146,-145.813,7.141,-35.339
-0.287,-0.529,1.025,-143.188,-4.578,-40.222
-0.297,-0.467,0.932,-143.860,-12.268,-46.143
-0.299,-0.406,0.871,-148.376,-10.864,-51.270
-0.277,-0.368,0.812,-154.297,-5.554,-52.490
-0.237,-0.260,0.775,-158.691,-1.465,-46.936
-0.207,-0.222,0.731,-162.415,3.723,-39.795
-0.239,-0.221,0.579,-161.743,12.817,-29.053
-0.304,-0.139,0.445,-159.485,15.808,-14.893
-0.326,-0.023,0.397,-163.879,14.709,-12.329
-0.327,0.038,0.385,-170.837,12.390,-23.743
-0.298,0.131,0.350,-174.927,7.874,-34.790
-0.258,0.169,0.318,-176.697,0.427,-39.368
-0.261,0.166,0.308,-174.561,-2.319,-36.804
-0.264,0.199,0.245,-174.744,0.549,-28.748
-0.257,0.285,0.258,-181.213,0.549,-22.339
-0.265,0.376,0.231,-179.382,-5.554,-21.851
-0.268,0.440,0.195,-169.434,-17.822,-26.001
-0.240,0.490,0.150,-158.081,-31.799,-31.250
-0.207,0.575,0.117,-150.085,-40.955,-35.583
-0.197,0.661,0.090,-144.714,-42.358,-38.696
-0.204,0.725,0.038,-138.000,-37.415,-37.170
-0.235,0.797,-0.017,-127.014,-31.799,-29.968
-0.236,0.878,-0.026,-114.197,-27.588,-23.315
-0.288,0.921,-0.089,-98.633,-22.461,-20.874
-0.337,0.980,-0.164,-85.876,-14.343,-17.517
-0.338,1.070,-0.241,-73.914,-6.897,-15.137
-0.364,1.154,-0.287,-56.519,-4.456,-13.855
-0.362,1.190,-0.259,-33.997,-7.935,-12.695
-0.355,1.200,-0.219,-18.738,-8.789,-14.099
-0.331,1.227,-0.201,-10.925,-6.104,-16.052
-0.342,1.233,-0.241,-2.197,-2.258,-15.991
-0.326,1.240,-0.240,9.277,-1.770,-14.526
-0.307,1.245,-0.196,20.691,-1.465,-13.428
-0.287,1.231,-0.157,31.128,0.793,-12.390
-0.254,1.202,-0.107,41.077,3.601,-10.986
-0.226,1.162,-0.052,48.645,5.859,-8.545
-0.236,1.107,0.007,53.528,7.141,-4.028
-0.244,1.028,0.032,59.265,8.179,2.869
-0.206,0.973,0.019,66.589,10.132,13.794
-0.271,0.905,0.063,65.002,11.536,17.273
-0.280,0.878,0.090,64.880,11.902,17.822
-0.268,0.884,0.124,64.575,14.160,17.517
-0.266,0.872,0.131,65.063,14.893,14.038
-0.276,0.847,0.116,68.970,12.634,12.207
-0.294,0.804,0.091,72.754,9.766,10.803
-0.296,0.790,0.086,76.111,6.531,10.742
-0.302,0.782,0.113,80.505,3.113,8.972
-0.280,0.742,0.146,84.717,0.305,4.395
-0.240,0.708,0.177,88.379,-0.183,2.869
-0.206,0.676,0.199,92.712,1.099,6.897
-0.215,0.624,0.177,97.900,2.930,14.282
-0.242,0.558,0.153,105.469,4.761,21.362
-0.247,0.501,0.177,110.962,7.751,24.292
-0.240,0.458,0.219,113.159,12.573,23.499
-0.208,0.426,0.243,116.394,16.418,21.729
-0.187,0.386,0.252,123.596,17.517,21.790
-0.204,0.340,0.258,132.751,18.188,25.024
-0.193,0.294,0.297,139.343,19.470,27.283
-0.190,0.251,0.298,142.456,21.667,26.367
-0.206,0.220,0.298,148.132,20.447,24.658
-0.214,0.151,0.358,156.738,14.221,21.362
-0.215,0.044,0.434,163.208,10.437,18.494
-0.231,-0.070,0.496,164.856,12.451,21.973
-0.285,-0.206,0.543,167.175,17.517,29.785
-0.331,-0.357,0.661,168.945,19.958,33.386
-0.354,-0.475,0.830,165.710,21.606,31.372
-0.349,-0.514,1.000,155.579,21.729,28.748
-0.341,-0.506,1.125,143.921,17.273,25.024
-0.338,-0.502,1.193,134.399,7.202,21.362
-0.251,-0.412,1.092,124.451,-2.808,22.766
-0.469,-0.630,1.132,135.559,-31.311,16.663
-0.525,-0.641,1.088,144.104,-42.786,19.104
-0.531,-0.694,1.218,144.165,-41.687,16.235
-0.587,-0.703,1.341,138.062,-37.415,12.939
-0.580,-0.716,1.440,129.883,-26.855,18.738
-0.618,-0.731,1.519,123.596,-21.301,20.142
-0.655,-0.745,1.609,119.446,-20.447,16.846
-0.674,-0.784,1.659,109.985,-18.921,13.428
-0.695,-0.845,1.700,98.328,-17.395,15.503
-0.700,-0.859,1.769,84.961,-15.137,23.071
-0.707,-0.810,1.825,66.711,-10.925,31.799
-0.707,-0.756,1.860,48.523,-7.080,36.438
-0.706,-0.723,1.847,31.982,-5.676,36.560
-0.754,-0.709,1.789,18.005,-7.080,34.546
-0.780,-0.696,1.777,6.042,-9.216,30.334
-0.780,-0.678,1.782,-5.676,-7.446,26.855
-0.773,-0.672,1.802,-17.212,-3.296,25.818
-0.778,-0.681,1.818,-26.367,2.319,27.283
-0.768,-0.731,1.819,-34.607,10.132,27.222
-0.739,-0.807,1.806,-42.908,17.456,23.254
-0.698,-0.818,1.792,-52.917,20.874,18.372
-0.628,-0.815,1.769,-65.674,22.583,11.047
-0.532,-0.819,1.713,-77.881,22.339,1.343
-0.460,-0.820,1.657,-88.074,18.311,-5.005
-0.401,-0.831,1.587,-95.520,13.916,-7.019
-0.338,-0.793,1.490,-102.966,15.503,-2.197
-0.321,-0.721,1.382,-107.666,18.311,5.493
-0.287,-0.706,1.295,-108.459,16.296,9.705
-0.287,-0.720,1.217,-105.469,12.390,11.719
-0.544,-0.636,1.219,-98.816,10.925,18.188
-0.303,-0.466,1.222,-75.623,22.888,48.889
-0.344,-0.360,1.156,-69.824,65.369,22.034
-0.050,-1.120,0.781,-74.219,128.235,-61.096
-0.047,-0.448,0.691,-115.845,115.417,-22.705
-0.202,-0.501,0.651,-114.685,84.351,-3.296
-0.138,-0.431,0.582,-131.287,72.449,-6.836
-0.021,-0.270,0.466,-146.362,47.791,9.338
-0.147,-0.160,0.385,-151.001,14.709,-0.854
-0.190,-0.093,0.368,-148.437,-16.174,-6.775
-0.125,-0.044,0.280,-153.625,-32.166,-4.578

-0.406,-0.780,1.240,142.578,-15.137,56.580
-0.440,-0.885,1.348,137.939,-12.329,62.744
-0.457,-0.986,1.499,129.333,-12.634,59.875
-0.547,-1.114,1.562,120.239,-13.062,53.589
-0.670,-1.177,1.646,114.197,-21.240,41.870
-0.745,-1.177,1.696,103.027,-27.832,27.893
-0.777,-1.126,1.830,87.219,-27.039,19.043
-0.747,-1.045,1.873,63.171,-18.921,16.663
-0.728,-0.992,1.891,45.776,-13.489,14.954
-0.723,-0.920,1.876,29.297,-11.902,13.916
-0.720,-0.831,1.830,10.986,-10.864,15.015
-0.739,-0.760,1.787,-2.808,-12.512,17.273
-0.769,-0.701,1.717,-12.207,-16.174,19.653
-0.761,-0.634,1.709,-23.926,-19.043,19.836
-0.725,-0.630,1.702,-31.860,-16.296,11.414
-0.643,-0.638,1.675,-39.734,-11.536,2.869
-0.743,-0.667,1.737,-45.532,-6.714,-3.662
-0.664,-0.703,1.715,-53.223,5.066,-10.681
-0.607,-0.782,1.702,-60.425,22.644,-11.902
-0.532,-0.843,1.669,-67.871,36.743,-9.827
-0.483,-0.891,1.629,-76.721,45.959,-5.920
-0.449,-0.932,1.622,-85.327,50.781,-2.258
-0.406,-0.952,1.602,-97.534,53.528,-3.113
-0.350,-0.940,1.557,-116.150,56.030,-7.690
-0.290,-0.879,1.477,-134.521,57.312,-13.489
-0.271,-0.908,1.386,-149.353,55.481,-16.479
-0.187,-0.858,1.306,-170.776,46.875,-13.916
-0.174,-0.766,1.225,-188.843,37.659,-9.827
-0.191,-0.634,1.081,-202.515,25.574,-7.446
-0.237,-0.579,0.979,-202.698,11.475,-8.423
-0.206,-0.504,0.900,-202.942,8.789,-15.564
-0.166,-0.370,0.844,-208.862,11.963,-22.461
-0.139,-0.235,0.737,-210.815,9.460,-29.602
-0.142,-0.138,0.590,-207.275,1.282,-36.621
-0.123,-0.043,0.502,-203.369,-6.226,-42.297
-0.154,0.059,0.443,-201.111,-10.437,-46.204
-0.098,0.157,0.340,-201.477,-15.625,-49.133
-0.117,0.229,0.290,-202.087,-26.306,-51.331
-0.133,0.300,0.229,-202.209,-37.720,-49.133
-0.127,0.346,0.126,-203.308,-43.579,-43.030
-0.163,0.350,0.054,-198.364,-45.471,-32.898
-0.185,0.340,0.054,-192.322,-46.753,-21.851
-0.193,0.367,0.036,-193.420,-43.640,-16.113
-0.179,0.427,0.075,-203.979,-38.757,-12.939
-0.175,0.496,0.082,-214.905,-34.058,-8.362
-0.174,0.563,0.133,-214.233,-20.325,-2.869
-0.137,0.636,0.125,-211.731,-6.714,-1.892
-0.154,0.672,0.062,-200.317,-5.737,-4.456
-0.161,0.697,-0.016,-187.927,-7.019,-8.179
-0.192,0.758,-0.098,-175.293,-8.179,-8.484
-0.210,0.818,-0.179,-162.231,-8.545,-7.446
-0.239,0.849,-0.226,-145.752,-8.484,-5.798
-0.256,0.891,-0.218,-128.845,-5.554,-3.235
-0.263,0.976,-0.233,-114.990,3.906,-1.465
-0.228,1.063,-0.307,-99.915,12.329,-1.038
-0.281,1.088,-0.363,-75.439,12.756,0.732
-0.306,1.115,-0.355,-49.194,12.329,3.540
-0.342,1.163,-0.337,-28.870,15.381,5.371
-0.344,1.209,-0.334,-13.611,18.188,5.432
-0.349,1.242,-0.347,0.244,16.968,5.920
-0.363,1.256,-0.378,13.367,11.719,6.653
-0.382,1.225,-0.390,21.423,4.089,7.385
-0.373,1.208,-0.359,23.560,-2.258,9.766
-0.352,1.222,-0.313,25.513,-2.380,12.817
-0.380,1.226,-0.283,29.541,4.883,19.836
-0.383,1.186,-0.267,36.133,13.611,23.254
-0.388,1.128,-0.245,44.922,21.973,22.644
-0.369,1.104,-0.213,53.162,30.518,20.386
-0.331,1.083,-0.173,62.866,36.255,14.954
-0.294,1.047,-0.137,74.280,38.635,10.437
-0.259,1.006,-0.109,85.571,40.161,8.972
-0.238,0.949,-0.094,96.069,42.053,10.559
-0.227,0.888,-0.079,106.018,44.739,13.672
-0.200,0.858,-0.065,114.563,46.753,15.503
-0.195,0.812,-0.055,120.239,45.715,14.038
-0.170,0.753,-0.058,125.244,40.344,10.193
-0.164,0.691,-0.040,132.996,30.212,7.385
-0.161,0.626,0.003,142.944,18.799,4.272
-0.151,0.558,0.066,150.635,10.864,1.526
-0.120,0.488,0.126,153.809,7.629,-0.244
-0.094,0.397,0.188,154.785,6.348,-1.526
-0.041,0.311,0.250,155.029,5.859,-0.977
-0.014,0.241,0.303,155.151,11.292,3.601
-0.047,0.223,0.330,153.198,22.583,13.184
-0.073,0.214,0.373,149.597,31.189,22.766
-0.157,0.101,0.368,150.635,36.621,30.151
-0.225,-0.049,0.375,155.762,38.391,35.278
-0.263,-0.151,0.460,161.011,37.842,35.095
-0.259,-0.203,0.613,162.903,37.964,30.151
-0.241,-0.256,0.731,164.307,38.086,25.085
-0.220,-0.332,0.830,157.227,31.128,24.658
-0.191,-0.302,1.006,134.827,16.541,31.982
-0.201,-0.222,1.081,121.155,4.822,40.039
-0.231,-0.177,1.071,121.399,-6.714,42.664
-0.296,-0.211,1.037,128.174,-21.912,37.720
-0.365,-0.353,0.952,137.756,-33.691,29.175
-0.414,-0.543,1.023,139.404,-42.236,25.452
-0.422,-0.705,1.209,131.470,-38.879,30.762
-0.409,-0.817,1.509,112.122,-20.569,42.114
-0.405,-0.888,1.825,84.290,6.348,56.091
-0.421,-0.877,2.132,64.209,30.579,63.293
-0.435,-0.774,2.364,44.617,45.410,63.354
-0.457,-0.650,2.450,25.696,46.753,54.749
-0.450,-0.505,2.480,4.639,32.776,47.119
-0.467,-0.376,2.322,-4.395,8.789,38.513
-0.525,-0.299,2.128,-12.207,-10.315,33.386
-0.596,-0.275,2.006,-21.484,-30.334,29.419
-0.655,-0.218,1.963,-37.231,-37.903,30.396
-0.710,-0.175,1.938,-53.162,-34.973,31.860
-0.770,-0.238,1.928,-63.354,-27.771,30.945
-0.783,-0.287,1.947,-70.679,-19.409,25.574
-0.759,-0.302,1.987,-76.843,-10.620,13.184
-0.676,-0.291,2.007,-80.566,-4.089,-2.991
-0.561,-0.279,2.003,-82.153,-0.916,-18.616
-0.438,-0.285,1.975,-84.656,0.427,-30.457
-0.374,-0.313,1.927,-86.975,0.854,-36.438
-0.239,-0.318,1.879,-91.858,3.113,-36.255
-0.185,-0.271,1.785,-97.900,8.423,-34.058
-0.145,-0.231,1.673,-101.135,11.719,-31.067

-0.328,1.182,-0.599,-56.641,10.498,-34.241
-0.287,1.252,-0.580,-41.077,10.986,-38.696
-0.246,1.305,-0.590,-28.564,11.292,-42.114
-0.214,1.347,-0.607,-17.456,10.742,-43.518
-0.184,1.386,-0.620,-5.310,8.728,-41.992
-0.156,1.411,-0.613,6.287,4.883,-38.025
-0.145,1.425,-0.613,17.395,1.648,-32.227
-0.144,1.410,-0.616,27.527,-0.061,-24.658
-0.154,1.386,-0.617,38.025,0.122,-16.113
-0.163,1.352,-0.589,48.767,0.671,-9.766
-0.160,1.315,-0.536,59.265,1.587,-4.517
-0.172,1.259,-0.495,69.580,3.967,0.549
-0.190,1.202,-0.465,79.285,8.789,6.348
-0.171,1.162,-0.405,86.182,15.564,9.644
-0.152,1.131,-0.336,90.088,21.606,11.658
-0.116,1.088,-0.267,93.689,24.109,13.916
-0.092,1.043,-0.224,97.900,24.170,16.052
-0.078,0.985,-0.176,100.769,22.034,18.921
-0.059,0.938,-0.116,100.159,17.822,22.827
-0.067,0.887,-0.094,100.647,13.184,27.588
-0.116,0.801,-0.121,104.736,8.911,33.081
-0.152,0.723,-0.119,109.497,5.127,36.499
-0.170,0.660,-0.080,112.061,2.502,35.278
-0.188,0.612,-0.037,114.563,1.099,30.212
-0.182,0.580,0.019,118.286,0.549,22.949
-0.167,0.545,0.073,123.413,1.160,16.052
-0.157,0.486,0.117,129.639,-0.061,10.498
-0.132,0.442,0.164,133.545,-3.113,6.104
-0.104,0.425,0.215,134.155,-2.930,5.676
-0.090,0.406,0.251,136.963,2.075,11.230
-0.074,0.363,0.294,142.395,6.653,20.752
-0.071,0.302,0.382,146.423,10.864,32.043
-0.080,0.227,0.495,149.719,18.005,45.105
-0.110,0.128,0.579,150.330,28.015,59.875
-0.180,0.006,0.601,150.391,38.635,71.716
-0.246,-0.093,0.625,152.100,42.969,75.439
-0.261,-0.110,0.706,156.555,39.612,68.604
-0.270,-0.106,0.808,163.208,29.907,56.763
-0.272,-0.112,0.931,170.776,16.357,48.523
-0.293,-0.125,1.022,176.453,6.775,46.570
-0.319,-0.172,1.092,181.152,2.441,49.133
-0.335,-0.226,1.176,183.167,1.587,53.772
-0.372,-0.252,1.242,179.871,4.517,59.509
-0.396,-0.248,1.275,171.753,7.324,60.974
-0.430,-0.244,1.251,161.255,9.094,55.786
-0.443,-0.271,1.201,152.954,8.850,47.058
-0.472,-0.300,1.179,146.484,2.136,35.950
-0.477,-0.341,1.208,141.541,-10.559,26.123
-0.484,-0.397,1.304,138.916,-21.057,18.860
-0.473,-0.444,1.437,135.559,-22.766,14.526
-0.483,-0.504,1.577,132.629,-19.897,10.742
-0.492,-0.539,1.712,128.967,-13.000,10.376
-0.520,-0.529,1.799,122.314,-3.601,13.611
-0.508,-0.535,1.860,110.718,0.854,17.029
-0.486,-0.512,1.898,89.539,2.136,22.278
-0.514,-0.500,1.945,68.604,-2.991,26.062
-0.503,-0.476,1.913,48.279,-2.441,29.846
-0.519,-0.452,1.880,29.785,-2.625,31.555
-0.552,-0.435,1.844,13.977,-1.953,32.593
-0.564,-0.421,1.825,0.244,0.427,30.884
-0.588,-0.448,1.812,-12.817,2.197,25.696
-0.590,-0.475,1.813,-20.996,5.005,18.555
-0.545,-0.478,1.833,-29.175,8.667,10.071
-0.501,-0.457,1.844,-38.635,11.475,1.831
-0.450,-0.445,1.836,-49.377,11.780,-3.540
-0.404,-0.429,1.809,-60.364,10.803,-7.263
-0.333,-0.405,1.755,-71.106,10.132,-10.803
-0.300,-0.413,1.663,-79.224,6.897,-14.282
-0.278,-0.400,1.594,-84.290,-0.671,-16.602
-0.257,-0.401,1.546,-90.027,-5.005,-19.165
-0.240,-0.427,1.485,-96.802,-2.075,-21.240
-0.225,-0.424,1.430,-104.126,3.723,-21.606
-0.212,-0.415,1.384,-112.061,8.484,-20.691
-0.205,-0.416,1.349,-118.774,10.864,-20.020
-0.169,-0.359,1.308,-124.573,12.329,-20.142
-0.191,-0.362,1.149,-123.901,12.329,-21.423
-0.224,-0.364,1.021,-119.812,3.113,-21.729
-0.203,-0.295,0.971,-124.329,-5.432,-22.522
-0.191,-0.201,0.907,-134.766,-7.751,-25.574
-0.251,-0.117,0.790,-145.142,-8.911,-28.198
-0.145,-0.073,0.602,-149.719,-9.216,-24.841
-0.144,0.009,0.500,-163.452,-10.315,-26.428
-0.142,0.083,0.431,-171.692,-17.090,-27.710
-0.124,0.159,0.387,-174.683,-25.085,-23.804
-0.130,0.232,0.339,-172.607,-31.067,-16.846
-0.196,0.259,0.255,-166.077,-37.781,-7.263
-0.250,0.284,0.194,-160.583,-43.274,-0.549
-0.261,0.330,0.148,-159.912,-42.908,1.343
-0.276,0.380,0.068,-159.180,-40.161,-0.061
-0.285,0.441,0.016,-156.555,-40.100,-3.357
-0.306,0.497,-0.013,-153.198,-40.466,-6.348
-0.311,0.565,-0.041,-148.804,-36.316,-8.789
-0.290,0.642,-0.059,-144.470,-30.701,-9.888
-0.290,0.715,-0.086,-138.123,-25.452,-8.362
-0.310,0.761,-0.116,-128.906,-20.081,-3.357
-0.341,0.796,-0.145,-118.408,-14.648,1.953
-0.351,0.840,-0.143,-108.337,-8.728,4.333
-0.369,0.869,-0.141,-97.961,-2.808,4.333
-0.391,0.892,-0.144,-87.097,1.160,3.113
-0.402,0.927,-0.136,-76.843,4.395,-0.122
-0.400,0.979,-0.137,-66.406,9.033,-4.028
-0.413,1.014,-0.139,-53.467,13.367,-7.324
-0.466,1.048,-0.102,-39.673,16.052,-9.583
-0.378,1.054,-0.106,-23.804,17.029,-8.728
-0.407,1.065,-0.064,-13.977,15.015,-10.010
-0.399,1.090,-0.013,-4.944,10.559,-15.442
-0.374,1.120,0.018,1.526,7.263,-19.104
-0.352,1.135,0.022,6.775,4.578,-20.386
-0.365,1.127,0.006,15.503,1.465,-17.151
-0.387,1.096,0.029,24.658,-0.916,-11.108
-0.411,1.074,0.048,30.579,-0.427,-6.714
-0.401,1.083,0.090,33.081,2.319,-6.042
-0.380,1.110,0.123,33.813,5.493,-6.836
-0.361,1.116,0.127,36.499,6.409,-6.836
-0.345,1.105,0.121,41.199,5.371,-5.981
-0.343,1.079,0.119,45.532,4.211,-3.479
-0.350,1.037,0.101,49.866,3.784,-1.160
-0.347,0.992,0.111,54.810,3.052,0.916
-0.349,0.948,0.130,59.021,3.052,2.197

-0.462,-0.439,1.227,106.689,-9.460,39.429
-0.456,-0.442,1.311,103.210,-23.071,37.292
-0.518,-0.409,1.412,93.750,-45.227,28.564
-0.542,-0.384,1.449,84.106,-59.204,13.550
-0.564,-0.344,1.413,69.031,-66.162,-0.305
-0.536,-0.303,1.383,51.758,-74.707,-7.812
-0.554,-0.318,1.355,44.189,-85.876,-10.193
-0.557,-0.411,1.446,42.236,-81.909,3.052
-0.638,-0.446,1.621,39.917,-59.265,27.527
-0.667,-0.424,1.633,38.757,-28.564,51.697
-0.622,-0.654,1.733,48.462,-5.676,75.623
-0.734,-0.621,1.813,26.794,7.019,71.411
-0.736,-0.450,1.796,4.272,9.338,47.791
-0.682,-0.282,1.748,-8.545,2.441,28.687
-0.668,-0.218,1.649,-11.047,-10.437,15.076
-0.703,-0.206,1.559,-9.827,-24.109,10.498
-0.720,-0.205,1.515,-11.719,-28.931,7.751
-0.736,-0.224,1.536,-13.794,-25.024,8.545
-0.732,-0.268,1.625,-18.005,-12.451,9.949
-0.750,-0.320,1.733,-27.954,7.629,6.104
-0.772,-0.425,1.841,-38.513,28.564,3.418
-0.782,-0.558,1.947,-54.565,42.053,1.404
-0.764,-0.642,1.994,-77.576,46.082,-6.531
-0.713,-0.677,1.960,-98.206,41.687,-17.334
-0.622,-0.660,1.952,-119.080,28.687,-25.757
-0.547,-0.598,1.899,-134.766,12.390,-33.081
-0.464,-0.514,1.774,-143.066,5.188,-35.400
-0.409,-0.431,1.625,-151.428,-0.305,-41.626
-0.369,-0.361,1.476,-157.837,-5.249,-49.316
-0.318,-0.299,1.322,-159.363,-8.789,-52.246
-0.301,-0.245,1.193,-157.532,-9.399,-51.270
-0.282,-0.172,1.064,-153.870,-6.409,-49.194
-0.277,-0.123,0.951,-146.545,-2.441,-46.875
-0.259,-0.092,0.862,-137.634,0.916,-43.823
-0.227,-0.055,0.817,-132.385,5.432,-41.809
-0.215,-0.031,0.796,-133.850,10.071,-40.894
-0.199,-0.026,0.750,-140.320,11.108,-39.001
-0.219,-0.067,0.643,-146.179,8.545,-36.133
-0.257,-0.120,0.535,-149.109,4.700,-31.311
-0.249,-0.089,0.466,-153.259,1.221,-27.771
-0.209,0.005,0.434,-161.682,-4.456,-28.564
-0.173,0.090,0.421,-169.800,-14.526,-30.518
-0.140,0.159,0.384,-173.279,-22.644,-29.785
-0.154,0.171,0.295,-172.119,-27.344,-26.794
-0.193,0.161,0.219,-167.542,-32.837,-22.217
-0.198,0.179,0.193,-163.940,-34.485,-19.592
-0.195,0.206,0.204,-162.842,-30.518,-18.616
-0.204,0.235,0.232,-162.292,-25.330,-16.418
-0.199,0.285,0.251,-161.560,-19.714,-12.146
-0.228,0.333,0.248,-158.142,-11.902,-5.493
-0.270,0.361,0.174,-153.870,-3.296,2.380
-0.316,0.403,0.067,-147.583,4.089,8.240
-0.335,0.482,-0.014,-139.465,7.446,7.812
-0.344,0.573,-0.036,-130.981,5.432,2.808
-0.366,0.647,-0.079,-125.427,5.859,-5.432
-0.379,0.719,-0.085,-116.699,11.841,-11.414
-0.378,0.792,-0.108,-104.980,18.250,-13.733
-0.385,0.847,-0.147,-90.454,22.278,-16.296
-0.427,0.875,-0.159,-73.608,20.569,-15.869
-0.423,0.912,-0.177,-61.584,19.409,-15.686
-0.394,0.995,-0.194,-53.162,21.179,-15.686
-0.412,1.052,-0.228,-44.800,20.874,-11.658
-0.432,1.085,-0.260,-33.020,17.517,-6.531
-0.412,1.113,-0.257,-25.696,15.747,-4.150
-0.408,1.139,-0.239,-21.118,14.526,-5.676
-0.406,1.146,-0.232,-14.221,12.146,-5.005
-0.420,1.133,-0.241,-8.240,10.986,-4.150
-0.417,1.124,-0.234,-2.502,11.597,-4.150
-0.400,1.124,-0.215,2.747,13.550,-4.822
-0.391,1.127,-0.185,7.751,15.381,-6.042
-0.371,1.140,-0.135,11.719,16.357,-8.606
-0.352,1.138,-0.099,15.625,18.616,-10.498
-0.338,1.124,-0.092,19.775,20.386,-9.949
-0.340,1.120,-0.113,25.391,20.142,-8.850
-0.322,1.118,-0.101,32.104,18.677,-9.399
-0.305,1.125,-0.067,36.682,16.357,-11.230
-0.285,1.115,-0.037,39.673,11.963,-12.146
-0.271,1.108,0.004,40.955,6.409,-10.803
-0.253,1.112,0.035,42.053,2.136,-6.653
-0.273,1.094,0.006,45.227,-1.648,-0.549
-0.280,1.058,0.003,48.889,-5.005,3.052
-0.287,1.011,0.016,51.514,-6.836,4.944
-0.281,0.983,0.057,52.429,-5.981,6.592
-0.270,0.961,0.093,51.697,-3.906,7.446
-0.272,0.918,0.095,54.504,-2.014,8.789
-0.294,0.862,0.077,60.852,-1.648,12.024
-0.309,0.807,0.064,68.115,-1.587,15.930
-0.320,0.739,0.086,72.815,0.793,17.151
-0.302,0.679,0.133,71.960,5.371,13.916
-0.267,0.670,0.182,67.505,10.071,7.324
-0.236,0.669,0.226,70.007,13.794,3.601
-0.187,0.602,0.245,75.623,14.404,5.371
-0.172,0.546,0.331,66.345,9.827,8.606
-0.190,0.514,0.356,52.734,2.563,12.573
-0.312,0.505,0.295,50.720,-1.648,16.541
-0.345,0.508,0.266,59.570,-2.197,19.958
-0.322,0.513,0.292,68.542,0.793,18.066
-0.272,0.545,0.309,76.599,5.371,10.559
-0.237,0.556,0.292,88.989,8.850,5.981
-0.228,0.528,0.277,106.506,7.446,7.324
-0.234,0.463,0.286,125.183,4.944,13.062
-0.235,0.396,0.292,138.977,8.972,17.883
-0.264,0.327,0.287,147.461,16.602,21.606
-0.286,0.237,0.316,154.724,24.536,23.682
-0.307,0.148,0.410,157.837,33.447,21.301
-0.299,0.131,0.530,154.663,43.274,15.686
-0.266,0.156,0.635,151.489,49.622,10.254
-0.264,0.143,0.687,150.879,45.654,6.775
-0.262,0.119,0.704,152.588,33.936,5.737
-0.268,0.127,0.709,151.306,23.682,4.578
-0.256,0.146,0.697,148.254,17.029,2.502
-0.254,0.117,0.690,147.888,9.949,0.610
-0.254,0.035,0.711,149.048,3.479,0.183
-0.242,-0.100,0.773,150.085,3.601,1.404
-0.203,-0.277,0.882,151.672,14.954,6.958
-0.246,-0.473,0.997,153.687,32.776,20.020
-0.238,-0.548,1.253,152.832,40.771,36.865
-0.236,-0.511,1.519,152.283,38.025,36.438
-0.217,-0.436,1.662,135.254,43.335,36.072

-0.264,-0.297,1.678,99.792,0.793,22.461
-0.329,-0.307,1.589,88.379,-26.978,15.320
-0.376,-0.332,1.519,82.336,-47.546,8.850
-0.455,-0.313,1.477,77.393,-49.988,11.353
-0.498,-0.257,1.468,71.106,-39.856,18.738
-0.515,-0.202,1.497,64.392,-24.963,22.644
-0.510,-0.160,1.503,56.458,-12.329,23.254
-0.505,-0.134,1.496,47.974,-4.944,23.987
-0.506,-0.111,1.466,40.833,-4.150,23.010
-0.526,-0.114,1.427,34.119,-8.667,19.409
-0.552,-0.178,1.413,28.503,-15.442,15.808
-0.561,-0.272,1.452,23.926,-17.578,13.977
-0.560,-0.342,1.542,17.273,-13.611,14.771
-0.540,-0.389,1.663,4.456,-5.737,13.367
-0.525,-0.449,1.772,-9.766,2.686,8.850
-0.495,-0.520,1.889,-24.109,8.606,6.348
-0.459,-0.568,1.981,-36.865,10.193,4.211
-0.450,-0.596,2.049,-51.636,9.888,0.732
-0.392,-0.597,2.041,-69.153,6.775,-2.380
-0.494,-0.526,1.999,-89.539,2.136,-8.057
-0.480,-0.475,1.869,-102.051,-3.113,-11.475
-0.453,-0.434,1.732,-112.732,-8.179,-12.146
-0.441,-0.404,1.611,-120.361,-11.780,-13.367
-0.439,-0.364,1.513,-125.183,-9.644,-13.672
-0.442,-0.320,1.455,-130.432,-3.601,-13.245
-0.422,-0.289,1.423,-135.925,3.296,-13.123
-0.387,-0.303,1.387,-142.639,11.841,-12.390
-0.335,-0.331,1.364,-151.855,15.503,-8.911
-0.290,-0.310,1.352,-163.696,13.855,-4.456
-0.297,-0.288,1.254,-171.021,13.062,-0.488
-0.294,-0.257,1.133,-172.546,14.282,1.282
-0.270,-0.210,1.008,-172.791,12.756,-0.793
-0.248,-0.174,0.915,-172.241,4.456,-5.493
-0.238,-0.193,0.854,-170.776,-5.737,-10.437
-0.214,-0.176,0.833,-171.936,-11.475,-13.000
-0.200,-0.117,0.800,-177.185,-12.268,-12.756
-0.180,-0.059,0.724,-181.763,-15.686,-12.085
-0.155,0.016,0.623,-183.960,-25.574,-12.268
-0.134,0.101,0.483,-186.035,-37.048,-12.329
-0.162,0.140,0.338,-185.669,-47.729,-10.254
-0.161,0.150,0.208,-183.899,-57.678,-8.179
-0.141,0.182,0.148,-184.021,-63.599,-10.132
-0.130,0.252,0.118,-186.646,-63.782,-15.076
-0.113,0.308,0.073,-187.134,-59.937,-18.127
-0.121,0.350,0.046,-183.899,-54.077,-16.602
-0.122,0.381,0.007,-179.321,-47.363,-12.756
-0.137,0.421,-0.012,-175.842,-41.809,-9.399
-0.149,0.464,-0.040,-172.607,-37.476,-7.263
-0.159,0.503,-0.073,-169.189,-34.790,-5.615
-0.187,0.543,-0.112,-164.307,-33.142,-4.822
-0.211,0.584,-0.174,-158.020,-28.931,-4.578
-0.236,0.625,-0.238,-149.414,-21.118,-4.395
-0.276,0.688,-0.263,-138.977,-11.536,-3.418
-0.332,0.753,-0.292,-126.892,-1.282,-2.502
-0.377,0.815,-0.304,-114.197,7.751,-2.502
-0.405,0.883,-0.303,-104.492,15.137,-3.235
-0.428,0.955,-0.324,-96.008,20.508,-3.723
-0.453,1.014,-0.368,-84.473,23.132,-2.625
-0.486,1.062,-0.431,-71.899,22.156,-0.916
-0.515,1.108,-0.470,-60.486,18.311,-0.916
-0.532,1.167,-0.487,-51.819,12.817,-2.747
-0.531,1.220,-0.503,-43.640,6.775,-8.423
-0.531,1.253,-0.515,-33.936,0.427,-16.479
-0.502,1.291,-0.516,-23.743,-3.296,-24.231
-0.481,1.318,-0.510,-13.123,-2.625,-29.297
-0.457,1.327,-0.485,-3.113,-0.366,-30.640
-0.410,1.321,-0.452,6.714,2.869,-30.823
-0.363,1.308,-0.402,16.235,6.775,-30.151
-0.317,1.288,-0.349,25.024,10.193,-27.466
-0.276,1.262,-0.297,32.837,13.245,-23.621
-0.245,1.226,-0.250,39.368,15.808,-19.409
-0.209,1.194,-0.206,44.800,17.883,-14.954
-0.187,1.166,-0.181,49.438,19.653,-11.292
-0.174,1.139,-0.161,52.856,19.836,-9.094
-0.168,1.128,-0.144,55.786,18.677,-7.019
-0.163,1.122,-0.126,58.960,15.381,-5.005
-0.178,1.101,-0.128,62.805,9.094,-2.502
-0.193,1.074,-0.124,67.383,2.258,1.221
-0.195,1.043,-0.121,71.228,-2.258,5.676
-0.206,1.003,-0.114,74.036,-5.188,10.315
-0.207,0.958,-0.114,76.050,-7.141,14.038
-0.246,0.897,-0.150,79.773,-8.240,17.639
-0.255,0.844,-0.153,85.327,-8.667,20.325
-0.269,0.786,-0.131,89.783,-8.423,20.752
-0.276,0.733,-0.085,93.140,-7.385,20.325
-0.278,0.700,-0.031,94.910,-4.150,18.860
-0.277,0.681,0.009,98.328,-0.427,17.822
-0.269,0.624,0.034,101.501,2.441,18.494
-0.274,0.568,0.081,100.281,4.272,18.494
-0.280,0.521,0.101,97.778,7.202,16.479
-0.276,0.496,0.135,94.360,11.536,12.573
-0.267,0.467,0.137,95.703,14.526,9.277
-0.254,0.452,0.161,102.051,13.916,6.836
-0.263,0.433,0.180,110.474,11.047,3.906
-0.267,0.402,0.159,122.986,9.094,4.089
-0.297,0.350,0.185,137.512,7.080,7.385
-0.289,0.291,0.267,148.926,7.263,10.437
-0.265,0.261,0.388,153.015,12.451,11.780
-0.223,0.223,0.465,153.076,19.409,13.062
-0.183,0.207,0.542,146.301,20.508,17.151
-0.153,0.270,0.587,135.132,15.686,24.780
-0.171,0.316,0.581,128.479,10.010,36.255
-0.286,0.215,0.476,131.653,6.287,51.758
-0.347,0.073,0.453,139.038,3.906,61.401
-0.419,-0.081,0.540,143.372,7.263,61.523
-0.419,-0.209,0.699,148.193,18.250,55.603
-0.417,-0.299,0.905,156.616,30.396,46.936
-0.384,-0.294,1.156,162.842,38.208,37.964
-0.314,-0.223,1.346,162.903,44.800,30.518
-0.276,-0.157,1.417,159.363,50.415,27.710
-0.245,-0.152,1.506,155.640,41.565,30.518
-0.293,-0.154,1.519,155.151,21.606,31.860
-0.330,-0.249,1.481,151.123,10.254,33.936
-0.324,-0.287,1.532,145.447,-0.610,32.166
-0.343,-0.293,1.604,137.878,-0.732,26.245
-0.372,-0.339,1.667,132.385,5.859,18.433
-0.379,-0.368,1.744,126.038,14.587,15.747
-0.410,-0.368,1.805,116.943,21.301,19.653
-0.444,-0.342,1.834,105.774,23.499,24.902

-0.449,-0.250,1.732,81.604,17.151,20.630
-0.478,-0.214,1.668,72.693,2.502,15.259
-0.499,-0.199,1.610,62.073,-11.353,10.925
-0.519,-0.229,1.563,47.363,-18.433,8.301
-0.544,-0.268,1.559,33.020,-18.066,8.423
-0.579,-0.345,1.633,22.461,-13.428,11.169
-0.584,-0.484,1.780,15.869,-5.188,14.221
-0.564,-0.647,1.991,4.333,9.094,16.479
-0.523,-0.825,2.236,-14.771,28.076,16.907
-0.452,-0.929,2.454,-39.307,47.302,18.066
-0.401,-0.903,2.580,-66.040,55.725,20.569
-0.368,-0.767,2.532,-95.215,52.612,20.813
-0.355,-0.625,2.317,-124.390,32.593,13.306
-0.334,-0.494,2.021,-148.315,5.005,2.014
-0.323,-0.384,1.700,-161.316,-16.296,-7.385
-0.326,-0.275,1.400,-167.236,-32.715,-14.771
-0.327,-0.184,1.162,-169.373,-41.016,-21.118
-0.331,-0.120,0.995,-167.908,-39.856,-25.574
-0.327,-0.064,0.894,-161.194,-31.982,-25.757
-0.296,-0.032,0.793,-153.198,-18.677,-20.508
-0.297,-0.057,0.695,-151.001,-5.188,-21.851
-0.290,-0.056,0.657,-147.583,5.859,-26.428
-0.265,-0.022,0.635,-143.555,14.771,-27.710
-0.228,0.001,0.613,-140.625,19.592,-27.710
-0.188,0.021,0.590,-139.526,19.409,-28.931
-0.160,0.054,0.555,-141.663,15.869,-29.175
-0.143,0.073,0.496,-146.729,9.094,-26.245
-0.156,0.063,0.426,-150.879,-0.366,-19.043
-0.184,0.046,0.386,-154.846,-10.742,-10.498
-0.213,0.029,0.357,-159.485,-20.447,-3.113
-0.212,0.078,0.392,-164.734,-25.574,0.122
-0.204,0.153,0.422,-169.983,-25.269,-1.831
-0.176,0.208,0.411,-170.410,-24.109,-6.165
-0.160,0.260,0.397,-167.786,-23.682,-7.629
-0.177,0.284,0.345,-163.086,-23.437,-5.310
-0.192,0.310,0.290,-157.532,-23.926,-1.709
-0.200,0.346,0.256,-156.189,-24.170,0.916
-0.212,0.386,0.224,-155.151,-23.132,3.113
-0.245,0.425,0.198,-152.832,-19.897,6.165
-0.291,0.444,0.151,-149.414,-14.404,9.949
-0.331,0.461,0.099,-145.203,-7.751,13.000
-0.352,0.523,0.101,-143.311,-0.671,13.916
-0.354,0.601,0.100,-141.479,5.737,11.841
-0.351,0.661,0.086,-136.230,8.545,8.484
-0.381,0.697,0.055,-128.052,6.897,6.470
-0.404,0.734,0.015,-119.812,3.723,4.883
-0.420,0.782,-0.017,-114.502,1.709,2.441
-0.437,0.841,-0.057,-109.619,0.732,0.183
-0.437,0.900,-0.090,-103.455,-1.343,-1.953
-0.429,0.951,-0.122,-96.375,-4.211,-4.089
-0.434,0.986,-0.149,-88.501,-7.019,-5.066
-0.458,1.009,-0.190,-79.041,-9.399,-5.127
-0.478,1.020,-0.231,-67.871,-10.864,-6.958
-0.479,1.051,-0.243,-59.021,-10.986,-11.414
-0.464,1.084,-0.257,-54.016,-10.315,-16.174
-0.431,1.122,-0.264,-48.645,-7.324,-20.508
-0.388,1.168,-0.266,-43.884,-2.747,-23.071
-0.362,1.195,-0.263,-37.781,0.305,-21.973
-0.333,1.207,-0.248,-30.518,2.808,-18.860
-0.310,1.218,-0.233,-24.170,5.310,-15.198
-0.291,1.217,-0.227,-17.517,6.226,-11.719
-0.282,1.219,-0.224,-10.864,5.737,-9.705
-0.297,1.208,-0.224,-3.906,4.089,-9.399
-0.293,1.206,-0.207,3.235,1.770,-11.230
-0.281,1.204,-0.177,9.521,0.488,-13.794
-0.271,1.203,-0.153,15.625,0.793,-14.404
-0.269,1.192,-0.137,21.606,1.099,-12.207
-0.274,1.182,-0.128,27.039,0.793,-8.911
-0.277,1.181,-0.120,30.518,-0.427,-6.165
-0.266,1.181,-0.109,33.020,-3.418,-4.272
-0.266,1.180,-0.095,35.522,-9.460,-2.319
-0.271,1.183,-0.093,38.330,-15.564,-1.099
-0.284,1.177,-0.113,41.809,-20.874,0.671
-0.311,1.154,-0.141,46.997,-26.245,2.869
-0.328,1.128,-0.154,52.795,-29.480,4.150
-0.340,1.092,-0.157,59.448,-29.236,4.883
-0.336,1.057,-0.146,66.223,-26.367,5.676
-0.327,1.029,-0.123,72.754,-21.790,6.836
-0.312,0.997,-0.097,79.041,-16.785,8.118
-0.301,0.960,-0.068,84.778,-12.756,9.155
-0.287,0.920,-0.045,89.661,-9.460,10.315
-0.278,0.878,-0.025,94.604,-7.019,12.695
-0.277,0.830,-0.008,99.792,-5.615,15.564
-0.286,0.777,-0.006,105.164,-4.944,18.494
-0.299,0.733,-0.003,109.741,-4.883,20.386
-0.309,0.679,0.011,114.258,-4.150,20.813
-0.315,0.630,0.022,116.028,-2.258,20.020
-0.304,0.599,0.043,116.089,0.732,16.907
-0.290,0.574,0.078,116.150,4.578,12.024
-0.270,0.540,0.107,119.507,6.897,8.545
-0.254,0.507,0.153,124.939,6.775,7.568
-0.236,0.481,0.203,130.554,5.737,8.789
-0.218,0.452,0.252,136.353,5.371,11.841
-0.216,0.407,0.279,140.930,5.859,16.724
-0.227,0.346,0.282,143.616,7.019,22.522
-0.241,0.266,0.283,146.484,10.254,28.076
-0.245,0.217,0.306,147.888,14.893,30.884
-0.233,0.199,0.362,146.729,18.921,29.053
-0.210,0.183,0.401,146.667,21.362,23.987
-0.186,0.165,0.435,149.048,22.339,20.386
-0.158,0.148,0.485,152.283,21.179,22.156
-0.165,0.092,0.524,158.142,19.043,28.503
-0.199,0.016,0.567,164.062,16.235,37.781
-0.236,-0.070,0.595,168.518,15.076,46.997
-0.278,-0.145,0.631,172.180,15.503,53.162
-0.315,-0.194,0.671,175.049,15.503,55.603
-0.340,-0.231,0.724,175.720,17.029,52.063
-0.339,-0.268,0.792,173.584,19.470,43.213
-0.317,-0.297,0.881,173.767,21.240,34.607
-0.308,-0.342,0.976,174.133,20.935,30.457
-0.275,-0.417,1.052,175.049,18.799,31.433
-0.300,-0.493,1.145,175.903,8.362,37.842
-0.349,-0.587,1.273,175.293,-9.521,44.189
-0.360,-0.673,1.441,167.786,-16.602,48.035
-0.374,-0.707,1.604,152.588,-11.414,50.293
-0.390,-0.680,1.714,137.512,-4.456,47.180
-0.378,-0.630,1.755,123.474,-0.916,39.551
-0.374,-0.555,1.680,106.018,-1.404,34.790
-0.417,-0.531,1.688,96.130,-16.479,31.616

-0.417,-0.418,1.505,78.613,-15.564,22.278
-0.391,-0.341,1.436,69.092,-8.057,15.686
-0.430,-0.268,1.411,60.669,-6.531,11.597
-0.521,-0.212,1.402,56.702,-11.902,11.658
-0.619,-0.201,1.366,54.688,-18.494,14.099
-0.716,-0.193,1.345,50.598,-23.010,15.564
-0.770,-0.252,1.283,45.715,-24.841,12.451
-0.813,-0.338,1.285,42.603,-23.804,7.385
-0.793,-0.402,1.375,36.621,-16.663,3.174
-0.744,-0.469,1.486,24.109,-1.831,0.732
-0.693,-0.548,1.588,10.254,15.381,-0.549
-0.655,-0.608,1.733,-6.958,28.809,-0.854
-0.596,-0.617,1.863,-26.001,35.034,0.916
-0.563,-0.681,1.935,-36.926,34.363,0.000
-0.526,-0.745,1.947,-51.514,36.438,-2.075
-0.505,-0.833,1.921,-64.209,31.921,-7.507
-0.468,-0.882,1.902,-78.186,28.931,-12.085
-0.435,-0.819,1.873,-96.558,24.658,-15.930
-0.417,-0.738,1.797,-114.380,19.775,-18.799
-0.391,-0.677,1.680,-126.953,14.343,-22.888
-0.396,-0.559,1.576,-136.902,9.277,-26.367
-0.326,-0.508,1.434,-139.709,5.737,-25.940
-0.294,-0.464,1.300,-146.484,3.784,-28.503
-0.262,-0.399,1.219,-150.330,5.005,-34.912
-0.237,-0.339,1.149,-154.297,9.888,-37.964
-0.216,-0.298,1.078,-157.410,16.541,-39.307
-0.203,-0.258,1.016,-157.410,22.461,-38.208
-0.184,-0.214,0.929,-155.457,25.452,-36.255
-0.184,-0.177,0.820,-151.306,25.452,-35.645
-0.170,-0.143,0.734,-146.484,22.156,-35.950
-0.151,-0.085,0.688,-144.714,19.653,-36.926
-0.129,-0.008,0.647,-147.888,18.188,-37.964
-0.104,0.052,0.580,-152.588,16.052,-37.292
-0.093,0.104,0.522,-154.846,11.780,-32.043
-0.103,0.131,0.463,-155.151,6.653,-21.484
-0.131,0.143,0.405,-154.663,1.770,-8.789
-0.175,0.149,0.339,-153.931,-4.150,2.380
-0.242,0.160,0.248,-150.391,-11.475,11.292
-0.284,0.196,0.191,-146.301,-19.409,14.954
-0.290,0.241,0.189,-146.118,-24.170,11.169
-0.273,0.303,0.220,-148.560,-25.330,3.601
-0.246,0.353,0.233,-150.391,-24.475,-1.709
-0.231,0.393,0.230,-148.193,-21.790,-3.662
-0.222,0.425,0.230,-144.409,-17.151,-2.625
-0.237,0.440,0.213,-138.672,-12.451,0.854
-0.264,0.447,0.190,-131.409,-8.057,5.249
-0.288,0.462,0.198,-125.244,-3.540,8.728
-0.297,0.505,0.222,-122.742,0.610,10.437
-0.297,0.562,0.220,-120.728,5.188,10.010
-0.294,0.622,0.216,-116.394,8.728,7.019
-0.283,0.677,0.194,-112.122,11.047,2.808
-0.302,0.711,0.156,-105.469,10.925,-1.038
-0.322,0.751,0.133,-96.863,8.850,-3.906
-0.354,0.764,0.109,-89.355,7.996,-5.005
-0.383,0.768,0.124,-81.848,9.460,-2.686
-0.402,0.791,0.173,-75.989,11.841,0.977
-0.428,0.828,0.205,-72.144,14.343,5.188
-0.438,0.857,0.220,-68.542,13.306,7.019
-0.461,0.877,0.200,-65.002,8.484,5.493
-0.492,0.886,0.176,-60.852,0.977,0.427
-0.493,0.917,0.168,-57.068,-6.653,-7.690
-0.462,0.964,0.170,-54.993,-11.536,-16.479
-0.418,1.017,0.154,-52.979,-13.000,-21.790
-0.390,1.099,0.131,-51.025,-12.024,-23.376
-0.378,1.207,0.103,-49.744,-11.719,-24.658
-0.383,1.280,0.049,-43.701,-14.893,-22.888
-0.382,1.313,-0.015,-33.142,-19.653,-19.714
-0.372,1.322,-0.089,-21.362,-23.071,-18.188
-0.386,1.295,-0.171,-9.705,-25.269,-18.860
-0.398,1.266,-0.232,1.160,-26.367,-20.935
-0.388,1.244,-0.254,10.803,-24.841,-22.339
-0.349,1.225,-0.234,18.738,-18.677,-22.644
-0.308,1.200,-0.187,25.818,-10.498,-21.729
-0.266,1.171,-0.122,32.776,-3.113,-19.043
-0.227,1.135,-0.056,39.124,1.831,-14.526
-0.208,1.091,-0.012,44.189,4.639,-9.338
-0.202,1.047,0.012,47.913,5.005,-3.784
-0.208,1.011,0.035,50.842,3.723,1.770
-0.209,0.976,0.051,54.565,2.014,6.714
-0.227,0.938,0.061,59.753,0.610,10.620
-0.244,0.898,0.068,65.735,-0.061,13.306
-0.266,0.860,0.071,70.984,0.549,14.343
-0.270,0.829,0.090,75.867,2.136,13.977
-0.257,0.803,0.117,79.956,5.188,13.733
-0.243,0.777,0.151,83.374,7.751,13.855
-0.231,0.755,0.194,86.304,7.263,13.977
-0.225,0.731,0.220,90.149,4.639,14.832
-0.238,0.704,0.219,94.360,0.610,16.296
-0.269,0.672,0.202,99.243,-4.700,17.700
-0.296,0.640,0.182,104.309,-9.827,17.761
-0.319,0.610,0.174,108.643,-13.000,16.296
-0.318,0.586,0.188,112.549,-13.916,13.062
-0.302,0.561,0.203,114.441,-12.207,8.301
-0.286,0.535,0.222,117.004,-9.277,4.700
-0.274,0.505,0.235,120.422,-6.165,3.784
-0.276,0.468,0.250,125.366,-3.418,4.456
-0.283,0.420,0.271,130.859,-1.587,6.409
-0.287,0.366,0.303,135.254,-0.061,8.545
-0.287,0.314,0.349,138.000,1.587,9.216
-0.294,0.253,0.379,140.198,3.845,8.240
-0.299,0.184,0.420,142.517,4.761,6.104
-0.311,0.130,0.482,144.226,4.456,3.540
-0.315,0.084,0.549,145.081,3.906,0.122
-0.306,0.044,0.620,144.836,3.662,-3.601
-0.282,-0.011,0.700,144.897,2.441,-5.798
-0.228,-0.065,0.797,147.583,2.136,-2.930
-0.195,-0.107,0.905,152.527,3.540,7.263
-0.205,-0.130,1.008,157.654,6.714,22.827
-0.211,-0.138,1.071,159.363,11.902,37.537
-0.242,-0.136,1.089,157.898,17.029,48.462
-0.250,-0.124,1.060,154.968,16.724,53.650
-0.308,-0.126,0.990,150.574,8.423,52.551
-0.310,-0.142,0.920,148.254,-11.536,48.645
-0.372,-0.186,0.830,147.339,-42.664,40.894
-0.498,-0.281,0.732,147.461,-85.022,30.029
-0.493,-0.323,0.727,144.287,-117.065,15.503
-0.496,-0.394,0.911,143.555,-114.075,2.808
-0.458,-0.415,1.025,136.536,-89.355,2.747
-0.457,-0.542,1.127,135.437,-58.411,13.855

-0.515,-0.652,1.347,133.972,-28.931,56.824
-0.551,-0.816,1.293,117.188,-16.602,75.073
-0.662,-0.685,1.562,91.980,-12.634,95.337
-0.687,-0.763,1.613,90.271,6.775,81.726
-0.697,-0.778,1.668,73.059,26.306,62.988
-0.664,-0.773,1.728,60.425,34.363,45.654
-0.612,-0.748,1.765,44.617,30.029,29.358
-0.618,-0.681,1.808,30.090,14.954,21.240
-0.636,-0.607,1.803,19.592,-0.122,17.883
-0.645,-0.537,1.700,6.958,-8.240,17.395
-0.653,-0.465,1.593,-5.066,-15.259,18.127
-0.672,-0.430,1.491,-11.536,-21.118,17.944
-0.698,-0.411,1.408,-14.160,-22.278,16.846
-0.752,-0.448,1.364,-15.381,-17.395,13.733
-0.750,-0.499,1.403,-17.578,-5.920,8.423
-0.733,-0.550,1.486,-20.996,11.841,2.563
-0.699,-0.629,1.594,-29.419,29.785,-0.854
-0.662,-0.683,1.646,-43.213,46.021,-0.671
-0.607,-0.731,1.665,-64.331,54.688,0.183
-0.552,-0.738,1.671,-79.346,54.932,-1.099
-0.494,-0.758,1.625,-95.032,56.641,-2.380
-0.424,-0.779,1.612,-107.117,53.040,-3.784
-0.390,-0.756,1.556,-117.493,51.331,-3.174
-0.369,-0.778,1.510,-125.549,47.363,-2.319
-0.316,-0.718,1.484,-137.817,38.940,-4.089
-0.293,-0.665,1.423,-154.907,32.227,-13.306
-0.274,-0.618,1.337,-166.077,26.062,-19.409
-0.234,-0.565,1.262,-173.340,19.836,-25.024
-0.213,-0.500,1.181,-182.678,18.250,-30.884
-0.192,-0.414,1.085,-191.345,17.212,-35.400
-0.169,-0.326,1.001,-195.557,13.428,-38.574
-0.160,-0.255,0.890,-197.388,8.240,-40.710
-0.150,-0.190,0.770,-196.289,3.296,-42.358
-0.150,-0.129,0.670,-195.068,-2.502,-44.006
-0.145,-0.066,0.574,-194.153,-9.216,-45.837
-0.136,-0.013,0.477,-194.763,-14.954,-46.753
-0.149,0.032,0.388,-195.557,-19.165,-44.739
-0.159,0.091,0.324,-194.885,-22.766,-40.161
-0.153,0.157,0.303,-193.909,-27.832,-33.875
-0.145,0.202,0.298,-193.542,-34.546,-27.405
-0.135,0.222,0.281,-192.627,-39.856,-20.630
-0.138,0.258,0.268,-192.322,-40.771,-13.062
-0.139,0.292,0.247,-193.359,-38.757,-6.714
-0.151,0.302,0.195,-191.772,-36.438,-2.075
-0.166,0.328,0.152,-185.425,-34.058,1.099
-0.181,0.384,0.144,-179.749,-31.738,2.747
-0.187,0.432,0.139,-174.744,-28.931,1.831
-0.201,0.463,0.127,-167.480,-24.536,0.916
-0.235,0.488,0.118,-159.180,-19.409,1.587
-0.275,0.511,0.086,-152.161,-14.282,2.686
-0.312,0.553,0.039,-144.592,-9.766,3.174
-0.347,0.607,-0.001,-135.193,-6.042,1.770
-0.374,0.658,-0.034,-125.427,-2.747,-1.465
-0.393,0.708,-0.050,-117.371,1.221,-5.676
-0.402,0.763,-0.060,-110.046,7.507,-9.766
-0.434,0.814,-0.083,-101.196,15.198,-11.169
-0.479,0.868,-0.100,-90.027,20.935,-10.498
-0.502,0.922,-0.093,-78.857,23.743,-9.216
-0.516,0.964,-0.070,-70.496,23.132,-7.935
-0.518,0.993,-0.057,-63.477,19.653,-8.484
-0.509,1.020,-0.066,-58.838,14.709,-11.169
-0.499,1.060,-0.073,-55.420,8.911,-14.526
-0.482,1.104,-0.077,-51.270,1.526,-16.663
-0.472,1.138,-0.097,-45.776,-4.822,-18.188
-0.457,1.174,-0.116,-39.001,-9.644,-22.400
-0.435,1.179,-0.139,-31.006,-12.939,-24.353
-0.429,1.184,-0.177,-23.315,-14.832,-24.658
-0.418,1.192,-0.208,-15.137,-15.442,-25.757
-0.384,1.211,-0.216,-8.301,-13.428,-28.442
-0.354,1.214,-0.203,-0.916,-10.254,-31.250
-0.316,1.210,-0.178,6.226,-6.592,-32.898
-0.271,1.202,-0.145,12.939,-2.136,-32.715
-0.231,1.190,-0.108,19.348,2.502,-30.090
-0.192,1.180,-0.067,25.146,6.042,-26.123
-0.155,1.166,-0.030,29.663,7.629,-21.729
-0.133,1.137,-0.021,34.973,7.629,-15.259
-0.131,1.107,-0.024,39.795,6.897,-7.935
-0.136,1.086,-0.009,43.396,5.310,-1.221
-0.140,1.071,0.003,46.509,3.235,5.066
-0.147,1.057,0.015,48.767,0.732,10.132
-0.155,1.046,0.020,50.110,-1.465,13.306
-0.172,1.029,0.014,52.979,-3.601,16.052
-0.192,1.006,0.006,56.946,-5.920,18.616
-0.208,0.983,-0.003,61.768,-7.690,20.325
-0.214,0.952,-0.007,67.627,-8.850,21.423
-0.230,0.920,-0.005,73.669,-9.338,22.583
-0.231,0.889,0.009,80.322,-10.071,23.499
-0.223,0.853,0.026,85.876,-9.338,24.292
-0.214,0.823,0.050,91.003,-7.507,26.001
-0.197,0.790,0.072,96.436,-6.470,28.809
-0.187,0.759,0.093,101.379,-6.653,31.616
-0.191,0.725,0.103,106.262,-7.935,34.241
-0.213,0.685,0.103,112.183,-9.460,37.842
-0.224,0.642,0.103,118.286,-10.254,41.260
-0.241,0.600,0.099,122.803,-10.071,43.579
-0.260,0.562,0.098,127.686,-9.155,45.471
-0.261,0.526,0.104,133.362,-7.324,47.119
-0.251,0.493,0.130,138.428,-4.883,47.363
-0.227,0.460,0.159,143.494,-1.953,46.875
-0.200,0.429,0.192,148.926,0.916,47.302
-0.163,0.397,0.231,154.114,2.991,49.927
-0.133,0.363,0.265,158.630,3.723,54.626
-0.117,0.310,0.296,163.574,3.845,60.791
-0.128,0.221,0.300,168.274,4.272,68.726
-0.186,0.079,0.290,175.964,3.174,80.627
-0.242,-0.099,0.327,187.500,1.770,96.130
-0.288,-0.289,0.430,197.510,4.028,113.586
-0.362,-0.494,0.553,201.477,13.000,130.066
-0.453,-0.654,0.675,196.716,26.917,142.029
-0.470,-0.706,0.831,183.350,45.715,141.174
-0.440,-0.599,1.007,161.072,68.726,122.009
-0.387,-0.445,1.126,143.066,79.773,95.276
-0.351,-0.333,1.169,136.597,73.303,70.923
-0.315,-0.225,1.122,138.428,56.091,50.415
-0.268,-0.170,0.967,149.292,27.649,36.987
-0.321,-0.150,0.849,157.532,-23.254,32.837
-0.434,-0.290,0.733,166.260,-86.121,26.245
-0.531,-0.482,0.775,175.476,-117.126,26.306
-0.573,-0.677,0.879,183.594,-106.567,38.147

-0.631,-0.973,1.304,181.091,-31.860,61.279
-0.669,-1.045,1.521,168.152,11.169,69.946
-0.684,-1.048,1.685,146.484,47.791,74.585
-0.670,-1.019,1.795,120.056,69.946,70.984
-0.632,-0.980,1.846,94.666,78.125,59.937
-0.604,-0.976,1.775,75.073,79.224,47.058
-0.605,-1.004,1.702,60.547,75.745,35.889
-0.581,-1.011,1.754,48.340,65.247,24.109
-0.567,-0.983,1.885,30.823,57.983,13.672
-0.566,-0.937,1.988,11.597,56.091,7.874
-0.575,-0.890,2.014,-5.981,52.490,5.859
-0.585,-0.832,2.003,-19.836,42.847,2.502
-0.594,-0.773,1.932,-32.898,31.128,-3.479
-0.588,-0.710,1.808,-45.959,19.531,-11.353
-0.562,-0.669,1.667,-57.373,7.935,-20.081
-0.514,-0.631,1.572,-65.735,-0.732,-28.259
-0.461,-0.615,1.526,-73.669,-4.517,-34.973
-0.408,-0.610,1.501,-81.299,-2.502,-37.964
-0.361,-0.624,1.496,-88.257,3.113,-35.278
-0.331,-0.638,1.489,-96.069,10.925,-28.809
-0.302,-0.647,1.481,-105.530,17.639,-21.912
-0.274,-0.659,1.460,-116.089,23.132,-17.090
-0.250,-0.667,1.433,-125.244,26.733,-14.343
-0.236,-0.664,1.400,-133.545,26.184,-12.817
-0.218,-0.660,1.355,-140.747,21.790,-13.184
-0.231,-0.647,1.295,-147.827,13.428,-14.832
-0.286,-0.581,1.255,-152.649,4.150,-17.761
-0.213,-0.559,1.157,-152.100,1.831,-15.869
-0.196,-0.547,1.045,-162.109,-2.014,-22.522
-0.194,-0.492,0.971,-167.236,-9.216,-35.400
-0.192,-0.397,0.886,-171.204,-18.677,-42.847
-0.187,-0.311,0.810,-171.875,-28.137,-46.387
-0.195,-0.251,0.717,-168.884,-35.950,-50.598
-0.203,-0.202,0.645,-167.175,-41.687,-55.786
-0.200,-0.130,0.591,-168.579,-42.725,-60.242
-0.199,-0.068,0.520,-172.852,-39.124,-61.951
-0.196,-0.013,0.449,-174.805,-35.950,-59.143
-0.208,0.043,0.402,-176.575,-36.011,-52.368
-0.217,0.101,0.349,-180.420,-37.354,-43.823
-0.235,0.140,0.292,-182.434,-39.551,-34.485
-0.236,0.179,0.292,-183.167,-41.382,-24.292
-0.221,0.206,0.265,-188.599,-34.180,-13.123
-0.259,0.226,0.222,-190.552,-19.409,1.953
-0.299,0.252,0.229,-186.401,-7.080,17.029
-0.286,0.268,0.280,-180.786,-0.244,26.184
-0.285,0.290,0.343,-175.842,3.296,28.198
-0.277,0.326,0.369,-173.645,5.310,23.926
-0.271,0.362,0.356,-172.546,4.944,17.456
-0.284,0.381,0.308,-168.823,0.793,11.169
-0.295,0.402,0.267,-160.278,-7.141,5.005
-0.311,0.429,0.225,-152.344,-17.456,-1.892
-0.330,0.478,0.167,-145.569,-27.466,-9.399
-0.348,0.541,0.120,-141.724,-33.203,-16.479
-0.386,0.598,0.053,-138.977,-29.724,-18.799
-0.416,0.667,-0.014,-133.179,-18.311,-16.907
-0.416,0.732,-0.052,-126.160,-5.920,-14.832
-0.425,0.794,-0.071,-118.164,1.282,-13.245
-0.436,0.847,-0.075,-109.375,4.333,-12.329
-0.452,0.885,-0.081,-101.624,5.798,-11.597
-0.470,0.908,-0.089,-94.055,5.798,-10.132
-0.481,0.935,-0.083,-87.952,4.028,-8.240
-0.494,0.957,-0.086,-81.421,0.671,-6.470
-0.494,0.980,-0.084,-74.463,-3.357,-4.883
-0.483,1.005,-0.093,-69.702,-7.385,-7.263
-0.490,1.052,-0.126,-64.148,-11.719,-14.709
-0.500,1.097,-0.158,-56.335,-16.785,-20.508
-0.497,1.143,-0.200,-49.194,-19.775,-26.794
-0.498,1.179,-0.242,-40.649,-19.653,-32.837
-0.488,1.217,-0.267,-32.837,-17.090,-37.903
-0.458,1.254,-0.271,-26.062,-12.634,-41.138
-0.419,1.278,-0.269,-18.433,-6.897,-41.687
-0.376,1.288,-0.256,-10.376,-1.038,-39.856
-0.334,1.287,-0.246,-2.563,3.906,-36.316
-0.322,1.297,-0.237,4.944,6.714,-31.311
-0.312,1.294,-0.218,13.245,6.470,-24.719
-0.301,1.286,-0.209,21.179,5.371,-19.165
-0.287,1.276,-0.213,26.001,3.845,-15.503
-0.289,1.271,-0.216,30.762,0.916,-12.085
-0.285,1.258,-0.218,36.072,-2.197,-9.033
-0.281,1.235,-0.218,42.480,-4.639,-6.042
-0.264,1.210,-0.211,49.866,-6.714,-4.089
-0.257,1.188,-0.198,56.763,-8.240,-1.892
-0.247,1.159,-0.193,64.453,-9.583,1.038
-0.249,1.120,-0.203,72.449,-10.620,4.944
-0.251,1.079,-0.208,80.505,-11.658,9.094
-0.249,1.041,-0.200,87.830,-12.512,12.695
-0.246,0.995,-0.182,95.398,-13.245,15.869
-0.249,0.942,-0.170,102.661,-13.855,20.325
-0.269,0.886,-0.155,109.985,-14.099,25.757
-0.283,0.831,-0.136,116.516,-13.306,31.006
-0.284,0.774,-0.111,122.925,-10.925,36.499
-0.272,0.728,-0.080,128.296,-7.141,40.588
-0.265,0.673,-0.051,132.629,-3.723,42.908
-0.267,0.610,-0.039,138.245,-1.038,45.288
-0.275,0.543,-0.020,144.653,1.343,47.668
-0.280,0.490,0.007,149.597,3.967,48.645
-0.276,0.445,0.042,153.809,6.470,48.096
-0.257,0.407,0.089,158.081,8.972,46.204
-0.233,0.378,0.133,162.292,12.146,44.128
-0.225,0.339,0.163,166.931,14.709,43.640
-0.230,0.295,0.180,173.462,15.625,46.021
-0.228,0.242,0.200,180.481,16.724,49.927
-0.230,0.168,0.208,186.462,19.104,52.979
-0.231,0.067,0.238,194.214,21.057,55.847
-0.235,-0.057,0.324,202.698,23.499,60.059
-0.217,-0.189,0.454,208.374,28.381,65.918
-0.177,-0.316,0.620,210.571,38.025,72.266
-0.155,-0.432,0.790,208.679,49.988,80.078
-0.136,-0.526,0.916,203.064,61.951,88.257
-0.134,-0.603,1.031,196.777,69.519,95.093
-0.114,-0.664,1.140,190.002,71.716,98.938
-0.134,-0.747,1.219,186.646,68.970,99.548
-0.213,-0.830,1.266,183.533,60.486,97.412
-0.264,-0.873,1.278,179.687,48.950,90.149
-0.282,-0.861,1.289,168.701,36.743,75.439
-0.291,-0.793,1.231,152.344,16.418,55.786
-0.398,-0.722,1.197,140.442,-25.635,39.551
-0.474,-0.652,1.280,133.301,-64.392,26.733
-0.493,-0.580,1.268,126.892,-78.247,15.808

-0.618,-0.544,1.150,122.742,-80.872,-9.583
-0.629,-0.556,1.145,122.131,-72.388,-12.268
-0.673,-0.616,1.135,119.568,-53.101,-6.775
-0.740,-0.703,1.218,116.882,-30.762,3.418
-0.782,-0.755,1.346,108.643,-7.263,13.794
-0.827,-0.752,1.466,93.689,14.587,19.714
-0.835,-0.733,1.529,78.247,28.625,18.738
-0.815,-0.728,1.561,62.134,30.579,11.658
-0.794,-0.722,1.575,46.265,20.569,1.099
-0.754,-0.723,1.579,31.372,5.737,-8.240
-0.716,-0.726,1.587,19.165,-4.272,-13.550
-0.691,-0.722,1.596,6.775,-7.507,-15.259
-0.655,-0.743,1.615,-5.005,-6.470,-15.686
-0.611,-0.799,1.640,-14.343,0.671,-13.611
-0.589,-0.871,1.660,-24.841,17.334,-8.179
-0.557,-0.914,1.687,-38.879,35.828,-2.502
-0.509,-0.920,1.704,-54.504,49.316,0.671
-0.470,-0.909,1.717,-68.298,53.711,0.305
-0.435,-0.882,1.694,-81.421,51.575,-3.174
-0.396,-0.836,1.638,-93.567,44.128,-8.606
-0.364,-0.805,1.574,-104.431,34.241,-15.198
-0.340,-0.750,1.517,-114.563,27.344,-20.264
-0.317,-0.678,1.474,-125.305,24.292,-23.437
-0.301,-0.638,1.420,-133.118,25.330,-23.560
-0.275,-0.630,1.351,-137.878,29.846,-19.653
-0.262,-0.602,1.287,-146.057,36.072,-17.090
-0.263,-0.538,1.217,-154.663,42.419,-17.029
-0.252,-0.475,1.140,-161.072,47.607,-18.372
-0.242,-0.402,1.060,-164.368,51.758,-19.897
-0.210,-0.339,0.965,-167.053,51.270,-24.902
-0.190,-0.280,0.880,-169.556,48.462,-30.518
-0.180,-0.245,0.794,-170.959,43.457,-33.020
-0.169,-0.227,0.727,-171.875,38.818,-32.410
-0.185,-0.200,0.662,-172.729,34.241,-30.396
-0.182,-0.135,0.627,-174.438,26.978,-28.259
-0.147,-0.068,0.603,-178.162,17.639,-27.832
-0.120,-0.029,0.573,-182.129,7.629,-28.320
-0.111,0.001,0.541,-184.631,-2.258,-26.917
-0.122,0.032,0.494,-188.293,-11.902,-22.400
-0.133,0.065,0.439,-190.674,-22.278,-17.029
-0.160,0.106,0.400,-191.528,-32.532,-12.817
-0.173,0.168,0.374,-194.153,-42.053,-9.399
-0.191,0.228,0.342,-196.838,-49.622,-7.629
-0.212,0.272,0.313,-198.242,-54.810,-7.263
-0.252,0.287,0.256,-198.242,-57.495,-6.470
-0.273,0.301,0.208,-194.763,-56.152,-5.188
-0.287,0.327,0.188,-191.772,-50.659,-4.333
-0.278,0.376,0.197,-187.622,-44.128,-3.906
-0.271,0.436,0.219,-182.678,-37.292,-4.883
-0.284,0.485,0.209,-178.040,-30.518,-5.493
-0.297,0.532,0.201,-171.265,-25.635,-5.981
-0.306,0.577,0.186,-165.466,-22.705,-6.897
-0.317,0.625,0.165,-159.607,-20.874,-7.812
-0.331,0.663,0.132,-153.503,-19.592,-9.460
-0.357,0.689,0.088,-147.949,-18.677,-11.047
-0.396,0.721,0.055,-141.296,-16.479,-11.047
-0.425,0.762,0.024,-134.155,-11.841,-8.484
-0.462,0.802,-0.008,-126.831,-6.042,-3.967
-0.491,0.842,-0.036,-120.117,-1.648,-0.366
-0.514,0.875,-0.068,-112.488,1.038,1.526
-0.534,0.910,-0.092,-103.394,1.892,1.770
-0.549,0.948,-0.096,-95.337,0.549,0.549
-0.535,0.966,-0.084,-88.806,-2.014,-0.366
-0.539,0.990,-0.093,-82.825,-3.357,-5.005
-0.531,0.982,-0.105,-73.608,-3.845,-7.935
-0.521,0.993,-0.111,-67.688,-4.883,-9.521
-0.500,1.013,-0.102,-62.500,-6.348,-12.207
-0.462,1.045,-0.097,-58.472,-5.615,-16.418
-0.436,1.063,-0.097,-55.115,-3.845,-21.179
-0.416,1.093,-0.109,-50.842,-2.502,-23.071
-0.397,1.113,-0.119,-45.166,-1.343,-23.987
-0.374,1.109,-0.136,-39.795,-0.061,-26.062
-0.363,1.122,-0.156,-35.278,0.916,-28.137
-0.365,1.124,-0.174,-28.320,0.366,-27.954
-0.344,1.135,-0.189,-23.743,-0.488,-30.151
-0.334,1.174,-0.202,-21.301,-2.075,-32.288
-0.324,1.218,-0.215,-16.724,-5.798,-33.997
-0.307,1.208,-0.230,-11.108,-10.010,-36.499
-0.296,1.227,-0.242,-4.272,-13.428,-33.691
-0.275,1.229,-0.253,3.601,-16.174,-29.541
-0.274,1.219,-0.269,11.536,-20.020,-24.231
-0.268,1.196,-0.291,20.081,-23.499,-17.761
-0.255,1.193,-0.321,26.978,-25.574,-11.169
-0.258,1.211,-0.333,30.823,-27.466,-6.226
-0.254,1.230,-0.334,35.706,-28.748,-2.869
-0.247,1.225,-0.349,43.945,-28.320,-0.977
-0.247,1.192,-0.348,54.504,-27.161,1.160
-0.227,1.151,-0.334,64.819,-24.780,5.554
-0.204,1.104,-0.304,74.402,-20.935,12.451
-0.196,1.050,-0.268,82.825,-17.029,20.874
-0.195,0.984,-0.231,89.783,-13.489,30.518
-0.179,0.925,-0.191,93.262,-9.705,40.039
-0.167,0.869,-0.150,94.910,-5.798,47.974
-0.184,0.793,-0.140,97.595,-2.747,54.504
-0.208,0.689,-0.144,98.572,-1.587,60.242
-0.242,0.617,-0.114,92.102,-0.977,63.599
-0.259,0.590,-0.064,84.839,2.441,63.232
-0.268,0.564,-0.018,83.191,9.521,61.096
-0.266,0.536,-0.004,86.975,17.273,59.753
-0.258,0.500,0.021,93.689,23.132,59.021
-0.249,0.444,0.129,100.647,25.513,59.143
-0.228,0.427,0.189,99.976,29.236,58.594
-0.224,0.428,0.244,102.051,33.325,58.899
-0.244,0.390,0.255,106.750,37.354,61.462
-0.290,0.303,0.209,117.126,39.856,65.186
-0.289,0.234,0.188,129.944,39.551,65.613
-0.284,0.196,0.217,139.404,38.269,59.265
-0.265,0.182,0.282,146.851,36.194,49.072
-0.232,0.157,0.349,150.818,34.424,40.466
-0.194,0.124,0.432,149.048,32.166,37.109
-0.174,0.083,0.517,145.203,29.480,38.879
-0.169,0.055,0.603,141.418,27.771,44.617
-0.161,0.061,0.687,135.132,28.687,54.199
-0.204,0.023,0.727,131.897,32.715,68.176
-0.243,-0.048,0.750,134.338,37.781,84.167
-0.313,-0.152,0.733,138.550,43.091,96.802
-0.381,-0.231,0.710,144.897,45.959,100.891
-0.414,-0.281,0.724,149.841,46.692,93.750
-0.390,-0.318,0.810,156.128,48.401,78.125

-0.345,-0.345,1.452,155.457,41.138,73.364
-0.322,-0.341,1.568,141.235,26.733,69.458
-0.326,-0.346,1.638,132.629,16.785,46.570
-0.353,-0.337,1.685,133.911,0.488,34.058
-0.396,-0.327,1.699,133.728,-6.226,28.687
-0.442,-0.305,1.677,128.906,-1.892,31.677
-0.479,-0.317,1.681,120.361,6.775,41.992
-0.507,-0.408,1.745,110.352,19.836,53.284
-0.576,-0.507,1.831,102.173,38.452,65.796
-0.571,-0.577,1.920,83.191,61.768,78.735
-0.625,-0.675,2.116,67.810,63.354,81.421
-0.678,-0.778,2.297,50.903,59.692,76.965
-0.727,-0.828,2.466,25.269,51.453,64.331
-0.729,-0.723,2.557,-11.353,36.804,34.729
-0.681,-0.568,2.475,-43.518,28.809,3.052
-0.587,-0.397,2.255,-66.223,16.357,-8.301
-0.516,-0.282,2.048,-79.773,-9.766,-10.498
-0.486,-0.242,1.854,-86.975,-35.522,-9.827
-0.482,-0.228,1.686,-93.140,-51.025,-14.221
-0.484,-0.251,1.558,-98.145,-52.063,-18.372
-0.474,-0.301,1.469,-100.220,-43.823,-18.799
-0.457,-0.323,1.418,-100.952,-32.898,-19.592
-0.474,-0.368,1.353,-100.586,-21.484,-25.879
-0.456,-0.376,1.313,-96.436,-11.353,-35.278
-0.376,-0.352,1.311,-93.872,-3.967,-46.936
-0.314,-0.342,1.336,-93.323,0.610,-58.289
-0.249,-0.324,1.355,-94.360,6.714,-67.200
-0.199,-0.320,1.350,-97.595,12.695,-69.946
-0.160,-0.302,1.337,-103.699,18.127,-67.078
-0.126,-0.270,1.287,-114.258,21.484,-61.401
-0.096,-0.249,1.209,-125.427,21.362,-56.519
-0.100,-0.271,1.118,-133.728,15.747,-53.467
-0.090,-0.292,1.008,-137.573,8.423,-51.270
-0.057,-0.268,0.925,-142.639,1.099,-50.659
-0.020,-0.205,0.862,-149.597,-6.714,-50.903
0.001,-0.119,0.795,-155.884,-15.259,-50.781
-0.000,-0.045,0.707,-162.903,-22.400,-48.767
-0.026,0.014,0.599,-168.335,-26.917,-44.373
-0.049,0.051,0.481,-171.997,-32.104,-38.818
-0.087,0.064,0.372,-174.316,-39.795,-33.691
-0.114,0.111,0.297,-176.025,-47.913,-30.090
-0.117,0.185,0.256,-179.871,-54.932,-27.893
-0.107,0.234,0.234,-184.570,-62.195,-26.184
-0.104,0.278,0.215,-186.157,-68.604,-23.804
-0.121,0.313,0.193,-186.829,-72.144,-20.203
-0.154,0.338,0.148,-185.730,-74.219,-15.442
-0.170,0.376,0.116,-182.861,-74.707,-11.719
-0.183,0.413,0.093,-180.725,-72.388,-9.277
-0.205,0.439,0.063,-178.467,-67.688,-6.958
-0.235,0.466,0.029,-174.377,-60.974,-4.333
-0.269,0.499,-0.001,-168.762,-52.673,-1.831
-0.298,0.534,-0.028,-162.781,-43.457,-0.244
-0.323,0.576,-0.047,-156.616,-33.264,0.916
-0.339,0.622,-0.052,-149.048,-21.912,1.404
-0.364,0.660,-0.055,-140.076,-10.559,2.197
-0.396,0.690,-0.066,-129.272,-0.671,3.418
-0.420,0.718,-0.081,-117.737,6.714,4.395
-0.438,0.741,-0.092,-108.215,11.169,5.005
-0.458,0.762,-0.096,-101.074,12.085,4.883
-0.486,0.777,-0.115,-94.482,11.658,3.357
-0.512,0.803,-0.140,-89.966,10.254,2.197
-0.533,0.823,-0.161,-88.623,9.216,3.479
-0.518,0.810,-0.188,-91.736,8.118,6.104
-0.569,0.930,-0.199,-95.276,3.967,-13.367
-0.574,0.928,-0.222,-82.031,-1.160,-25.330
-0.585,0.941,-0.268,-72.021,-5.188,-22.827
-0.574,0.984,-0.300,-67.688,-11.780,-27.649
-0.560,1.045,-0.325,-64.331,-20.020,-33.386
-0.555,1.097,-0.351,-60.303,-28.137,-37.476
-0.539,1.136,-0.366,-55.420,-34.790,-40.222
-0.523,1.191,-0.389,-51.514,-38.269,-41.565
-0.511,1.352,-0.412,-45.105,-38.269,-42.419
-0.443,1.034,-0.446,-35.461,-35.461,-53.833
-0.484,1.217,-0.520,-35.645,-29.907,-51.575
-0.466,1.182,-0.549,-21.667,-23.926,-38.391
-0.445,1.222,-0.534,-10.803,-17.273,-36.560
-0.380,1.171,-0.492,-3.296,-8.972,-42.175
-0.336,1.220,-0.450,5.432,-0.549,-38.818
-0.304,1.209,-0.403,16.174,7.202,-32.959
-0.286,1.170,-0.367,23.376,12.207,-27.649
-0.269,1.155,-0.353,30.090,13.550,-14.954
-0.255,1.137,-0.332,35.034,12.573,-3.967
-0.246,1.126,-0.321,38.086,9.094,3.967
-0.250,1.110,-0.326,41.748,4.089,9.827
-0.283,1.089,-0.347,47.485,-1.160,13.306
-0.301,1.061,-0.355,55.176,-5.981,15.320
-0.322,1.034,-0.361,63.538,-8.789,16.541
-0.325,1.020,-0.343,72.266,-9.460,17.517
-0.307,1.003,-0.320,80.627,-8.545,17.944
-0.289,0.969,-0.289,89.600,-7.324,19.226
-0.275,0.931,-0.257,97.351,-6.042,20.386
-0.261,0.895,-0.224,104.858,-5.554,22.156
-0.266,0.846,-0.195,112.244,-5.798,24.963
-0.275,0.791,-0.185,119.202,-5.920,28.259
-0.286,0.748,-0.172,126.587,-5.127,31.738
-0.292,0.711,-0.146,133.301,-3.296,34.363
-0.292,0.688,-0.119,139.160,-0.183,35.706
-0.285,0.662,-0.083,145.508,3.723,35.828
-0.280,0.636,-0.046,151.611,8.240,36.194
-0.283,0.605,-0.006,157.837,12.695,36.987
-0.281,0.574,0.033,163.513,17.212,39.001
-0.280,0.538,0.069,168.579,21.912,42.664
-0.281,0.500,0.099,172.913,26.062,46.753
-0.287,0.447,0.107,176.819,29.541,50.964
-0.305,0.393,0.115,181.519,31.860,54.688
-0.306,0.350,0.142,185.547,33.691,56.274
-0.291,0.309,0.180,188.538,36.377,56.213
-0.275,0.263,0.225,191.650,39.063,55.969
-0.253,0.215,0.278,196.167,41.565,57.190
-0.227,0.157,0.347,200.317,44.373,60.181
-0.197,0.089,0.428,203.064,47.791,65.796
-0.172,-0.016,0.496,206.665,51.514,73.730
-0.175,-0.148,0.560,211.243,55.298,84.595
-0.192,-0.286,0.641,214.783,59.326,96.497
-0.185,-0.408,0.753,216.980,65.063,107.971
-0.173,-0.514,0.901,217.529,72.266,116.821
-0.174,-0.586,1.051,213.501,79.346,120.605
-0.176,-0.615,1.188,201.721,84.167,116.699
-0.164,-0.584,1.310,179.871,86.609,104.736

-0.164,-0.449,1.397,138.245,58.716,80.444
-0.188,-0.369,1.341,118.225,23.010,64.209
-0.239,-0.298,1.257,102.905,-32.959,57.800
-0.256,-0.257,1.148,93.567,-93.994,62.500
-0.267,-0.234,1.087,94.055,-127.686,64.575
-0.320,-0.291,1.079,105.286,-133.240,60.608
-0.336,-0.464,1.108,121.399,-118.408,61.951
-0.366,-0.669,1.161,132.629,-84.717,71.960
-0.441,-0.843,1.279,134.705,-41.931,85.938
-0.531,-0.981,1.453,124.207,0.000,97.656
-0.614,-1.044,1.629,106.140,40.039,104.004
-0.667,-1.026,1.811,83.008,73.059,102.356
-0.695,-0.995,1.980,57.983,92.163,90.149
-0.709,-0.974,2.128,34.058,93.628,69.092
-0.697,-0.940,2.219,10.132,83.618,47.180
-0.704,-0.841,2.252,-11.047,61.951,30.151
-0.727,-0.727,2.199,-30.334,33.447,14.587
-0.728,-0.608,2.058,-48.584,7.568,2.014
-0.719,-0.561,1.900,-59.692,-12.390,-6.958
-0.709,-0.573,1.754,-64.514,-26.550,-14.893
-0.700,-0.615,1.669,-70.068,-33.813,-19.653
-0.680,-0.651,1.632,-73.486,-32.959,-22.095
-0.627,-0.660,1.631,-80.872,-19.897,-36.926
-0.556,-0.667,1.632,-91.003,-1.221,-55.664
-0.462,-0.659,1.645,-99.548,13.611,-68.481
-0.364,-0.627,1.648,-108.337,22.339,-73.975
-0.278,-0.573,1.625,-115.845,26.794,-75.867
-0.198,-0.517,1.581,-122.498,28.259,-76.782
-0.134,-0.474,1.524,-128.540,27.039,-78.064
-0.083,-0.469,1.461,-132.874,23.010,-77.209
-0.052,-0.488,1.390,-135.498,18.921,-72.632
-0.030,-0.499,1.318,-139.282,16.479,-67.261
-0.018,-0.483,1.254,-145.691,14.832,-62.866
-0.010,-0.435,1.185,-154.846,11.108,-60.059
0.034,-0.374,1.115,-165.466,7.568,-57.373
0.021,-0.282,1.000,-171.631,3.296,-61.096
0.039,-0.203,0.890,-181.458,1.404,-66.589
0.041,-0.149,0.749,-190.552,-5.188,-65.552
0.033,-0.093,0.627,-197.144,-19.165,-60.730
0.018,-0.046,0.508,-205.444,-34.546,-56.213
-0.010,-0.012,0.412,-210.022,-50.049,-49.194
-0.057,0.012,0.323,-211.487,-65.918,-39.551
-0.120,0.026,0.219,-211.487,-80.078,-31.067
-0.141,0.087,0.164,-211.121,-90.637,-26.978
-0.127,0.170,0.151,-214.661,-96.008,-29.114
-0.116,0.234,0.130,-219.421,-98.022,-34.119
-0.104,0.299,0.088,-219.971,-98.999,-37.292
-0.102,0.347,0.049,-217.407,-98.572,-35.767
-0.135,0.366,-0.004,-211.243,-97.290,-29.114
-0.156,0.383,-0.045,-201.294,-95.093,-19.653
-0.187,0.412,-0.073,-190.613,-89.233,-10.620
-0.231,0.448,-0.090,-181.274,-80.627,-3.784
-0.270,0.483,-0.110,-172.180,-71.167,0.366
-0.318,0.510,-0.130,-162.292,-59.998,2.563
-0.361,0.545,-0.140,-153.625,-47.241,2.686
-0.384,0.589,-0.137,-146.362,-32.654,1.587
-0.410,0.625,-0.139,-138.245,-17.334,0.854
-0.448,0.653,-0.154,-127.930,-3.174,1.343
-0.484,0.683,-0.169,-118.164,8.545,1.892
-0.521,0.719,-0.182,-109.192,18.616,2.747
-0.575,0.744,-0.216,-100.342,25.635,5.066
-0.638,0.774,-0.253,-90.515,30.151,7.263
-0.689,0.808,-0.286,-80.261,30.090,7.507
-0.722,0.857,-0.304,-73.303,26.001,5.066
-0.743,0.907,-0.315,-70.190,18.372,-0.366
-0.776,0.926,-0.318,-69.702,7.385,-15.137
-0.754,1.075,-0.336,-62.927,-5.981,-48.279
-0.750,1.072,-0.343,-45.715,-16.052,-57.495
-0.725,1.106,-0.386,-40.039,-20.020,-65.674
-0.680,1.156,-0.418,-35.950,-21.057,-70.190
-0.624,1.215,-0.439,-30.640,-20.325,-69.763
-0.567,1.243,-0.450,-23.621,-17.761,-68.176
-0.514,1.270,-0.455,-17.090,-14.343,-66.406
-0.492,1.481,-0.449,-8.911,-11.108,-64.270
-0.374,1.160,-0.405,1.404,-8.545,-75.745
-0.342,1.295,-0.393,-1.465,-4.761,-74.219
-0.323,1.231,-0.337,5.737,-0.916,-66.528
-0.266,1.208,-0.332,8.606,3.052,-60.547
-0.237,1.204,-0.265,14.832,4.150,-50.659
-0.222,1.205,-0.218,23.926,6.226,-39.063
-0.174,1.142,-0.179,26.917,10.864,-28.564
-0.151,1.134,-0.145,28.503,13.428,-13.550
-0.139,1.121,-0.105,30.518,13.367,0.549
-0.127,1.109,-0.078,30.823,11.536,13.062
-0.146,1.074,-0.092,33.081,7.996,25.208
-0.203,1.040,-0.118,37.170,2.991,34.973
-0.260,1.022,-0.147,40.161,-2.197,39.734
-0.300,1.011,-0.177,44.128,-6.714,39.246
-0.316,1.027,-0.203,48.218,-11.292,34.546
-0.316,1.042,-0.207,52.795,-15.747,27.893
-0.319,1.040,-0.209,58.777,-19.043,23.132
-0.326,1.027,-0.216,66.650,-21.606,21.790
-0.331,0.997,-0.220,75.684,-23.865,23.010
-0.340,0.955,-0.224,84.839,-25.330,26.062
-0.345,0.899,-0.239,94.299,-25.513,30.945
-0.388,0.847,-0.253,104.248,-24.658,36.438
-0.410,0.789,-0.255,113.281,-22.705,40.527
-0.399,0.755,-0.238,119.019,-18.250,41.382
-0.390,0.715,-0.218,124.268,-11.475,39.429
-0.377,0.675,-0.185,129.028,-4.700,36.621
-0.351,0.639,-0.144,133.606,1.648,35.217
-0.321,0.599,-0.098,138.794,9.094,35.034
-0.292,0.573,-0.058,144.592,16.418,36.560
-0.272,0.533,0.017,152.832,21.912,39.978
-0.239,0.512,0.058,155.518,28.320,43.396
-0.234,0.469,0.083,159.180,33.325,47.424
-0.273,0.406,0.063,166.138,35.156,53.772
-0.308,0.351,0.052,174.377,34.119,59.082
-0.308,0.307,0.070,179.871,34.058,59.509
-0.288,0.260,0.100,182.373,35.156,55.420
-0.259,0.208,0.146,184.082,36.621,50.720
-0.223,0.154,0.214,186.157,37.720,48.523
-0.179,0.096,0.297,188.721,39.368,50.964
-0.147,0.031,0.392,192.322,42.053,57.312
-0.153,-0.073,0.457,196.655,45.959,66.956
-0.211,-0.216,0.503,203.308,49.744,79.224
-0.238,-0.352,0.590,208.130,52.979,90.149
-0.262,-0.468,0.696,206.482,56.824,94.604
-0.273,-0.482,0.830,198.608,58.655,90.637

-0.164,-0.564,1.307,176.514,35.767,48.950
-0.214,-0.573,1.321,170.471,5.310,56.885
-0.256,-0.561,1.349,159.180,-44.067,67.139
-0.333,-0.553,1.312,152.832,-86.731,78.308
-0.437,-0.539,1.370,153.625,-105.652,79.590
-0.539,-0.586,1.373,154.480,-98.083,64.697
-0.631,-0.624,1.378,156.738,-85.266,59.082
-0.697,-0.700,1.361,151.733,-63.721,61.157
-0.750,-0.790,1.390,141.235,-36.194,64.697
-0.811,-0.898,1.461,128.235,-7.935,68.298
-0.879,-1.003,1.544,112.854,20.264,72.266
-0.922,-1.077,1.678,94.971,44.312,74.402
-0.932,-1.124,1.833,73.303,61.584,71.411
-0.916,-1.130,1.995,49.805,69.641,59.753
-0.885,-1.071,2.117,25.696,73.853,37.537
-0.829,-0.970,2.162,2.014,69.580,18.005
-0.772,-0.853,2.115,-18.860,54.932,3.662
-0.693,-0.771,1.969,-36.438,35.156,0.061
-0.637,-0.718,1.813,-52.917,13.611,-8.667
-0.604,-0.698,1.695,-63.293,-1.343,-15.808
-0.556,-0.703,1.613,-71.594,-6.226,-18.982
-0.510,-0.734,1.564,-79.834,-3.601,-21.240
-0.483,-0.763,1.566,-86.914,3.662,-24.292
-0.459,-0.773,1.586,-93.445,14.221,-25.879
-0.419,-0.739,1.589,-102.722,24.780,-25.879
-0.367,-0.693,1.570,-110.535,31.677,-26.123
-0.303,-0.638,1.527,-117.371,33.508,-27.649
-0.233,-0.593,1.455,-124.695,32.776,-32.837
-0.179,-0.568,1.383,-130.066,29.968,-39.673
-0.142,-0.543,1.313,-135.620,25.635,-45.715
-0.135,-0.531,1.241,-140.869,21.118,-48.157
-0.147,-0.529,1.154,-145.447,16.602,-47.485
-0.152,-0.494,1.090,-150.269,12.512,-46.265
-0.144,-0.437,1.031,-157.776,8.606,-45.471
-0.179,-0.367,0.951,-165.283,3.967,-44.739
-0.115,-0.369,0.866,-169.800,4.517,-43.030
-0.128,-0.310,0.785,-170.105,2.319,-49.683
-0.142,-0.250,0.683,-180.115,5.554,-54.810
-0.116,-0.167,0.596,-189.514,-2.075,-58.533
-0.098,-0.115,0.515,-198.486,-15.320,-61.340
-0.089,-0.059,0.453,-206.116,-29.358,-61.035
-0.070,0.013,0.407,-212.891,-41.870,-57.129
-0.057,0.087,0.366,-217.407,-52.917,-49.805
-0.062,0.129,0.305,-219.604,-62.439,-41.260
-0.095,0.142,0.219,-217.712,-70.313,-33.081
-0.128,0.178,0.154,-215.210,-75.317,-27.222
-0.151,0.226,0.109,-214.600,-76.965,-24.048
-0.172,0.272,0.085,-211.365,-76.904,-21.973
-0.176,0.320,0.078,-205.200,-75.562,-20.508
-0.190,0.383,0.075,-199.646,-73.181,-18.433
-0.200,0.438,0.072,-192.383,-70.251,-16.602
-0.213,0.479,0.053,-184.937,-66.223,-15.747
-0.245,0.503,0.032,-176.392,-61.707,-13.672
-0.285,0.517,0.001,-167.175,-56.580,-10.315
-0.323,0.536,-0.020,-157.471,-50.110,-6.042
-0.366,0.559,-0.029,-147.217,-41.565,-1.343
-0.427,0.585,-0.048,-136.658,-31.311,3.601
-0.469,0.631,-0.058,-126.526,-20.447,6.897
-0.500,0.677,-0.070,-118.958,-10.254,6.836
-0.535,0.725,-0.072,-111.145,-1.892,3.906
-0.550,0.772,-0.074,-104.553,4.456,-0.732
-0.578,0.803,-0.089,-99.365,9.094,-5.188
-0.609,0.838,-0.096,-94.177,12.024,-8.484
-0.627,0.870,-0.112,-88.562,13.550,-9.766
-0.649,0.887,-0.126,-82.947,14.099,-9.094
-0.669,0.909,-0.151,-78.613,13.062,-9.521
-0.677,0.926,-0.156,-75.256,10.010,-8.545
-0.696,0.896,-0.142,-76.965,5.798,-13.123
-0.675,1.033,-0.161,-72.754,-1.343,-40.894
-0.687,0.990,-0.160,-52.551,-5.615,-42.725
-0.651,0.998,-0.169,-46.143,-6.775,-47.546
-0.628,1.104,-0.170,-44.434,-7.690,-55.908
-0.548,0.937,-0.172,-40.771,-7.874,-69.458
-0.537,1.073,-0.188,-41.931,-6.226,-75.073
-0.530,1.106,-0.201,-35.522,-2.991,-71.411
-0.493,1.071,-0.214,-31.189,1.099,-77.087
-0.466,1.151,-0.228,-30.334,5.737,-80.200
-0.436,1.078,-0.236,-22.888,9.338,-78.613
-0.388,1.131,-0.222,-22.095,13.184,-79.834
-0.330,1.167,-0.198,-19.287,15.808,-75.317
-0.280,1.153,-0.175,-13.611,16.357,-70.557
-0.238,1.187,-0.156,-10.132,15.198,-64.148
-0.198,1.187,-0.143,-5.554,12.939,-54.382
-0.171,1.180,-0.134,-0.671,10.132,-43.030
-0.156,1.166,-0.135,4.700,6.653,-30.701
-0.139,1.162,-0.138,9.766,2.380,-18.738
-0.123,1.164,-0.140,13.062,-2.136,-9.338
-0.133,1.159,-0.162,15.930,-8.179,-2.747
-0.166,1.148,-0.193,20.691,-16.235,2.075
-0.185,1.136,-0.218,26.489,-24.658,5.981
-0.205,1.118,-0.246,32.410,-31.372,9.094
-0.238,1.100,-0.277,39.795,-36.560,12.146
-0.266,1.085,-0.304,48.218,-39.917,14.099
-0.284,1.063,-0.314,57.617,-40.771,15.930
-0.286,1.043,-0.308,68.115,-39.063,18.005
-0.272,1.026,-0.287,78.308,-35.217,19.287
-0.263,1.005,-0.251,87.585,-30.029,21.179
-0.254,0.967,-0.225,96.497,-23.926,24.963
-0.257,0.915,-0.208,106.628,-18.005,30.701
-0.271,0.861,-0.206,116.455,-13.428,36.560
-0.288,0.810,-0.193,125.488,-10.620,40.588
-0.294,0.760,-0.176,133.789,-8.057,42.419
-0.299,0.715,-0.158,140.686,-4.700,41.565
-0.301,0.684,-0.126,145.691,-0.793,38.757
-0.287,0.661,-0.080,149.414,4.211,35.828
-0.267,0.635,-0.038,154.419,10.437,34.485
-0.254,0.599,-0.007,161.133,16.724,35.767
-0.250,0.555,0.017,167.419,21.729,38.940
-0.245,0.513,0.047,173.950,25.085,43.335
-0.232,0.472,0.078,179.443,28.137,47.546
-0.227,0.425,0.107,183.838,29.724,51.086
-0.221,0.376,0.131,188.660,29.785,54.260
-0.203,0.329,0.166,193.115,29.053,57.190
